pc_timestamp_iso,ms,ax,ay,az,gx,gy,gz,mx,my,mz,press,baro_t,prox,cr,cg,cb,light,gesture,mic,p2p
2026-05-27T23:42:15.029,1227995,0.97,-0.26,-0.06,2.9,4.1,-0.5,-2.8,20.1,26.4,101.13,36.81,0,0,0,0,0,NONE,21,129
2026-05-27T23:42:15.061,1228034,0.92,-0.27,-0.07,13.1,4.8,3.9,-2.3,20.3,25.6,101.134,36.82,0,1,0,0,1,NONE,42,185
2026-05-27T23:42:15.111,1228083,0.91,-0.28,-0.14,23.6,21.7,4.0,-2.3,20.7,25.6,101.132,36.84,0,1,0,0,1,NONE,36,158
2026-05-27T23:42:15.176,1228135,0.91,-0.27,-0.08,6.4,30.8,7.7,-2.9,20.0,26.3,101.131,36.84,0,1,0,0,1,NONE,32,173
2026-05-27T23:42:15.222,1228186,0.95,-0.29,-0.24,18.3,38.6,14.5,-4.4,19.7,26.6,101.132,36.85,0,1,0,0,1,NONE,43,278
2026-05-27T23:42:15.271,1228233,0.96,-0.22,-0.16,8.9,21.8,14.3,-5.7,19.4,26.8,101.129,36.85,0,1,0,0,1,NONE,66,307
2026-05-27T23:42:15.319,1228287,0.9,-0.2,-0.26,8.9,12.0,9.5,-5.6,18.7,26.0,101.133,36.85,0,1,0,0,1,NONE,53,252
2026-05-27T23:42:15.372,1228333,0.91,-0.26,-0.28,8.8,20.4,4.8,-6.5,18.9,27.6,101.135,36.86,0,1,0,0,1,NONE,40,254
2026-05-27T23:42:15.414,1228383,0.83,-0.19,-0.39,8.7,39.0,6.8,-7.1,18.3,26.6,101.131,36.86,0,1,0,0,1,NONE,78,392
2026-05-27T23:42:15.466,1228433,0.86,-0.19,-0.21,7.8,62.9,9.1,-8.2,17.9,26.5,101.137,36.87,0,0,0,0,0,NONE,79,385
2026-05-27T23:42:15.515,1228485,0.88,-0.16,-0.38,14.1,62.1,17.3,-10.2,18.4,27.4,101.131,36.87,0,0,0,0,0,NONE,75,430
2026-05-27T23:42:15.559,1228533,1.02,-0.23,-0.45,42.4,27.9,11.9,-11.6,17.3,27.6,101.136,36.88,0,1,0,0,1,NONE,78,420
2026-05-27T23:42:15.624,1228585,0.98,-0.16,-0.38,28.8,6.5,18.2,-12.7,16.7,27.6,101.131,36.87,0,1,0,0,1,NONE,54,268
2026-05-27T23:42:15.674,1228635,0.95,-0.29,-0.46,27.6,11.9,18.6,-12.7,16.4,27.8,101.127,36.87,0,0,0,0,0,NONE,73,351
2026-05-27T23:42:15.722,1228683,1.03,-0.17,-0.47,14.5,7.6,24.0,-13.5,15.0,26.9,101.131,36.88,0,0,0,0,0,NONE,59,260
2026-05-27T23:42:15.772,1228735,0.97,-0.15,-0.37,10.9,16.5,20.1,-14.5,15.2,27.9,101.132,36.88,0,0,0,0,0,NONE,61,273
2026-05-27T23:42:15.821,1228783,0.99,-0.06,-0.59,11.7,15.2,20.0,-15.2,14.8,27.0,101.133,36.89,0,0,0,0,0,NONE,79,404
2026-05-27T23:42:15.866,1228835,0.9,-0.04,-0.56,7.7,8.9,18.6,-16.1,14.9,26.0,101.13,36.89,0,0,0,0,0,NONE,60,277
2026-05-27T23:42:15.919,1228885,0.93,0.0,-0.53,10.1,13.7,16.9,-16.4,14.4,27.5,101.129,36.89,0,0,0,0,0,NONE,69,412
2026-05-27T23:42:15.974,1228933,0.93,-0.04,-0.59,4.4,2.4,6.6,-17.1,14.2,26.6,101.129,36.9,0,0,0,0,0,NONE,70,477
2026-05-27T23:42:16.021,1228985,0.99,0.02,-0.59,5.2,-5.0,3.1,-16.9,14.4,27.3,101.133,36.88,0,0,0,0,0,NONE,46,235
2026-05-27T23:42:16.074,1229037,0.98,-0.02,-0.59,10.7,-7.0,1.8,-16.8,14.5,28.0,101.132,36.89,0,0,0,0,0,NONE,61,391
2026-05-27T23:42:16.122,1229083,0.93,0.01,-0.53,7.7,-5.4,1.9,-17.0,14.3,26.5,101.132,36.89,0,0,0,0,0,NONE,76,477
2026-05-27T23:42:16.173,1229135,0.95,-0.07,-0.54,-0.3,0.4,1.6,-16.4,14.4,26.5,101.128,36.89,0,0,0,0,0,NONE,152,979
2026-05-27T23:42:16.226,1229183,0.97,-0.02,-0.56,-4.1,0.4,0.5,-16.2,14.6,26.2,101.13,36.89,0,0,0,0,0,NONE,204,1157
2026-05-27T23:42:16.270,1229235,0.98,-0.03,-0.44,-1.2,-10.1,1.9,-16.0,14.5,26.4,101.125,36.89,0,0,0,0,0,NONE,144,804
2026-05-27T23:42:16.323,1229285,0.99,-0.02,-0.47,4.2,-15.6,4.3,-14.9,14.4,27.1,101.132,36.9,0,0,0,0,0,NONE,144,789
2026-05-27T23:42:16.363,1229333,0.94,0.11,-0.36,2.2,-18.6,-0.9,-14.6,14.4,26.8,101.134,36.9,0,0,0,0,0,NONE,168,998
2026-05-27T23:42:16.415,1229382,0.9,0.05,-0.3,6.3,-29.7,-1.6,-14.6,14.4,26.8,101.128,36.91,0,0,0,0,0,NONE,103,553
2026-05-27T23:42:16.464,1229434,0.84,0.06,-0.28,7.1,-27.1,-5.2,-11.1,13.4,25.4,101.128,36.9,0,0,0,0,0,NONE,49,301
2026-05-27T23:42:16.528,1229485,0.66,0.15,-0.19,8.2,-18.7,-12.6,-11.0,13.6,24.9,101.128,36.9,0,0,0,0,0,NONE,46,519
2026-05-27T23:42:16.572,1229537,0.87,-0.02,-0.34,2.9,-32.1,-7.3,-9.4,13.5,25.2,101.128,36.9,0,0,0,0,0,NONE,48,274
2026-05-27T23:42:16.621,1229585,0.7,0.08,-0.2,9.1,-18.4,-3.7,-7.9,13.1,25.5,101.129,36.9,0,0,0,0,0,NONE,28,159
2026-05-27T23:42:16.672,1229633,0.93,-0.07,-0.25,-2.8,-4.7,-10.9,-7.2,13.5,24.0,101.129,36.91,0,0,0,0,0,NONE,26,155
2026-05-27T23:42:16.719,1229685,0.85,-0.17,-0.35,-2.2,-16.7,-2.1,-6.2,13.4,23.3,101.129,36.9,0,0,0,0,0,NONE,36,278
2026-05-27T23:42:16.767,1229737,0.93,0.01,-0.28,12.9,-26.6,6.3,-5.2,13.1,23.8,101.129,36.91,0,1,0,0,1,NONE,37,163
2026-05-27T23:42:16.819,1229783,0.67,0.01,-0.19,12.5,-0.9,-0.2,-5.4,12.5,23.1,101.128,36.91,0,1,0,0,1,NONE,48,249
2026-05-27T23:42:16.864,1229837,0.91,-0.05,-0.25,-11.2,-14.2,-10.1,-3.8,13.2,22.5,101.129,36.9,0,1,0,0,1,NONE,30,198
2026-05-27T23:42:16.911,1229883,0.9,-0.02,-0.18,-21.1,-9.6,-13.9,-3.6,13.7,23.5,101.128,36.9,0,1,0,0,1,NONE,38,201
2026-05-27T23:42:16.975,1229936,0.95,0.02,-0.28,-25.6,13.2,-16.1,-3.0,14.9,24.4,101.126,36.91,0,1,0,0,1,NONE,27,146
2026-05-27T23:42:17.024,1229986,0.99,-0.11,-0.37,-10.8,4.1,-5.4,-2.7,16.0,25.1,101.127,36.9,0,1,0,0,1,NONE,24,167
2026-05-27T23:42:17.072,1230035,0.83,-0.14,-0.25,2.3,-0.5,-3.1,-3.1,15.7,25.5,101.13,36.9,0,1,0,0,1,NONE,50,169
2026-05-27T23:42:17.122,1230083,0.95,-0.12,-0.16,4.8,6.5,-8.9,-2.3,15.8,24.5,101.127,36.91,0,1,0,0,1,NONE,54,258
2026-05-27T23:42:17.173,1230135,0.93,-0.26,-0.19,-23.7,13.9,-12.5,-2.4,16.5,25.6,101.132,36.91,0,1,0,0,1,NONE,80,378
2026-05-27T23:42:17.217,1230185,0.96,-0.26,-0.23,-25.9,10.6,-13.5,-2.9,17.8,25.9,101.127,36.9,0,1,0,0,1,NONE,102,555
2026-05-27T23:42:17.266,1230234,0.92,-0.15,-0.15,-16.2,6.5,-6.5,-2.4,18.7,26.2,101.13,36.91,0,1,0,0,1,NONE,157,910
2026-05-27T23:42:17.314,1230285,0.98,-0.3,-0.21,-23.1,12.6,-9.9,-2.7,20.0,27.5,101.127,36.91,0,1,0,0,1,NONE,127,818
2026-05-27T23:42:17.365,1230337,0.96,-0.27,-0.11,-20.8,-4.7,-8.7,-2.8,20.6,26.6,101.126,36.91,0,1,0,0,1,NONE,139,986
2026-05-27T23:42:17.413,1230383,0.82,-0.29,-0.01,-4.1,-2.5,-2.2,-2.6,20.8,26.8,101.132,36.91,0,1,0,0,1,NONE,151,959
2026-05-27T23:42:17.475,1230435,0.96,-0.24,-0.08,-15.1,-3.2,1.6,-2.3,21.9,26.5,101.128,36.91,0,0,0,0,0,NONE,117,871
2026-05-27T23:42:17.522,1230483,0.93,-0.21,-0.1,8.4,-7.3,6.1,-1.9,21.6,26.2,101.126,36.91,0,0,0,0,0,NONE,86,549
2026-05-27T23:42:17.571,1230535,0.87,-0.31,-0.09,8.2,-6.0,9.5,-1.7,21.4,26.6,101.129,36.91,0,0,0,0,0,NONE,76,553
2026-05-27T23:42:17.625,1230587,0.9,-0.3,-0.2,0.7,-0.9,15.0,-1.7,21.3,26.4,101.126,36.92,0,0,0,0,0,NONE,149,847
2026-05-27T23:42:17.668,1230635,0.87,-0.28,-0.27,3.2,10.4,15.3,-1.6,21.3,26.4,101.128,36.91,0,1,0,0,1,NONE,184,981
2026-05-27T23:42:17.716,1230683,0.91,-0.22,-0.34,3.8,24.2,11.7,-2.2,21.2,25.8,101.129,36.91,0,1,0,0,1,NONE,174,804
2026-05-27T23:42:17.765,1230735,0.68,-0.08,-0.29,-14.1,27.8,6.2,-3.0,21.2,28.0,101.128,36.91,0,0,0,0,0,NONE,191,857
2026-05-27T23:42:17.823,1230785,0.81,-0.06,-0.15,27.9,45.4,3.2,-4.8,21.0,27.7,101.127,36.91,0,0,0,0,0,NONE,76,396
2026-05-27T23:42:17.872,1230833,0.85,-0.14,-0.28,36.6,52.2,-3.5,-5.9,20.1,27.8,101.13,36.91,0,1,0,0,1,NONE,111,554
2026-05-27T23:42:17.920,1230885,0.79,0.02,-0.27,42.1,60.4,-3.0,-7.6,19.2,28.7,101.128,36.91,0,1,0,0,1,NONE,80,502
2026-05-27T23:42:17.969,1230937,0.66,-0.31,-0.24,31.5,66.6,-2.0,-9.3,18.4,27.2,101.133,36.91,0,0,0,0,0,NONE,143,772
2026-05-27T23:42:18.016,1230983,0.57,-0.17,-0.24,45.0,66.1,5.0,-10.7,18.0,29.0,101.127,36.92,0,0,0,0,0,NONE,149,862
2026-05-27T23:42:18.076,1231035,0.7,-0.31,-0.4,38.0,51.6,-5.4,-13.2,16.2,28.5,101.132,36.91,0,0,0,0,0,NONE,79,481
2026-05-27T23:42:18.123,1231083,0.39,-0.03,-0.35,-4.0,24.5,4.3,-14.3,16.2,28.2,101.133,36.91,0,0,0,0,0,NONE,94,539
2026-05-27T23:42:18.174,1231135,0.75,-0.08,-0.48,20.2,15.3,-3.4,-15.5,16.6,28.5,101.131,36.91,0,0,0,0,0,NONE,129,784
2026-05-27T23:42:18.221,1231187,0.9,-0.26,-0.55,-8.4,22.5,4.0,-16.2,16.5,27.8,101.13,36.91,0,0,0,0,0,NONE,129,760
2026-05-27T23:42:18.273,1231235,0.86,-0.1,-0.71,4.9,19.8,9.8,-16.2,17.0,27.5,101.128,36.91,0,0,0,0,0,NONE,122,833
2026-05-27T23:42:18.322,1231283,1.15,-0.08,-0.73,13.2,4.5,3.8,-17.4,16.1,28.3,101.129,36.91,0,0,0,0,0,NONE,157,915
2026-05-27T23:42:18.378,1231335,0.8,-0.12,-0.58,-8.8,-3.4,-0.8,-16.8,16.1,28.0,101.136,36.91,0,0,0,0,0,NONE,147,877
2026-05-27T23:42:18.411,1231385,0.79,-0.16,-0.76,3.3,-18.8,-5.1,-16.9,17.2,27.9,101.133,36.91,0,0,0,0,0,NONE,109,761
2026-05-27T23:42:18.458,1231434,1.15,-0.14,-0.62,-0.7,0.5,5.0,-16.3,17.0,28.8,101.132,36.91,0,0,0,0,0,NONE,96,426
2026-05-27T23:42:18.521,1231485,1.11,-0.11,-0.93,10.0,-16.5,-6.0,-16.4,16.4,28.8,101.133,36.91,0,0,0,0,0,NONE,58,305
2026-05-27T23:42:18.568,1231537,1.03,-0.23,-0.47,-11.4,-17.8,-3.3,-16.2,16.9,29.2,101.133,36.91,0,0,0,0,0,NONE,85,485
2026-05-27T23:42:18.616,1231583,0.96,-0.18,-0.43,-14.3,-42.2,2.5,-15.4,17.7,29.2,101.132,36.91,0,0,0,0,0,NONE,93,497
2026-05-27T23:42:18.671,1231635,0.88,-0.27,-0.42,-2.4,-49.9,11.5,-13.8,18.6,28.4,101.131,36.91,0,0,0,0,0,NONE,64,381
2026-05-27T23:42:18.722,1231683,0.85,-0.12,-0.4,2.8,-54.0,5.3,-12.4,17.5,27.7,101.133,36.91,0,0,0,0,0,NONE,75,486
2026-05-27T23:42:18.775,1231735,0.89,-0.14,-0.38,2.6,-38.4,-7.9,-10.1,17.4,28.1,101.132,36.91,0,0,0,0,0,NONE,91,540
2026-05-27T23:42:18.822,1231787,0.87,-0.21,-0.23,-4.3,-12.3,-8.3,-9.0,17.8,26.5,101.136,36.91,0,0,0,0,0,NONE,120,675
2026-05-27T23:42:18.872,1231835,0.96,-0.19,-0.26,-3.2,-8.4,-4.3,-8.6,18.5,27.2,101.137,36.91,0,0,0,0,0,NONE,61,348
2026-05-27T23:42:18.920,1231883,0.96,-0.23,-0.14,-3.2,-19.6,-5.7,-8.3,18.8,28.1,101.135,36.91,0,0,0,0,0,NONE,197,1015
2026-05-27T23:42:18.975,1231935,0.94,-0.22,-0.14,-5.2,-17.9,-5.1,-7.4,18.9,28.0,101.135,36.91,0,1,0,0,1,NONE,242,1554
2026-05-27T23:42:19.025,1231985,0.95,-0.23,-0.14,1.2,-12.8,-6.7,-6.6,18.8,27.3,101.131,36.91,0,1,0,0,1,NONE,139,816
2026-05-27T23:42:19.073,1232033,0.92,-0.21,-0.14,-2.5,-15.0,-2.5,-5.9,18.8,26.2,101.132,36.91,0,0,0,0,0,NONE,117,716
2026-05-27T23:42:19.124,1232085,0.93,-0.23,-0.21,14.2,-2.5,-2.3,-4.8,18.9,26.9,101.136,36.91,0,0,0,0,0,NONE,124,607
2026-05-27T23:42:19.169,1232137,0.96,-0.2,-0.18,-1.8,-13.5,-0.4,-4.8,18.9,25.4,101.133,36.91,0,1,0,0,1,NONE,131,645
2026-05-27T23:42:19.217,1232183,0.91,-0.21,-0.21,-6.0,-2.0,-1.9,-4.7,19.4,26.4,101.132,36.91,0,1,0,0,1,NONE,64,389
2026-05-27T23:42:19.275,1232235,0.94,-0.27,-0.14,-0.1,-7.1,0.7,-4.3,19.7,26.3,101.133,36.91,0,1,0,0,1,NONE,70,419
2026-05-27T23:42:19.322,1232283,0.91,-0.27,-0.09,-2.7,-3.1,-1.2,-4.1,20.0,26.0,101.131,36.91,0,1,0,0,1,NONE,113,711
2026-05-27T23:42:19.375,1232335,0.95,-0.26,-0.17,1.5,5.3,1.5,-4.2,20.4,26.4,101.131,36.91,0,0,0,0,0,NONE,155,988
2026-05-27T23:42:19.425,1232387,0.94,-0.25,-0.09,6.5,7.6,2.7,-3.9,20.2,26.1,101.132,36.91,0,0,0,0,0,NONE,144,927
2026-05-27T23:42:19.473,1232435,0.91,-0.14,-0.1,15.3,23.1,4.1,-4.3,19.8,24.6,101.131,36.91,0,1,0,0,1,NONE,93,613
2026-05-27T23:42:19.519,1232483,0.91,-0.27,-0.19,19.8,37.9,1.8,-4.6,19.9,26.1,101.133,36.91,0,1,0,0,1,NONE,133,640
2026-05-27T23:42:19.579,1232535,0.95,-0.21,-0.11,-2.4,25.8,2.2,-5.6,19.4,27.1,101.136,36.91,0,0,0,0,0,NONE,68,393
2026-05-27T23:42:19.624,1232585,0.91,-0.26,-0.21,15.0,42.8,3.5,-6.4,19.7,25.3,101.132,36.91,0,0,0,0,0,NONE,121,727
2026-05-27T23:42:19.672,1232634,0.93,-0.26,-0.26,16.5,46.6,11.8,-7.0,19.0,27.3,101.134,36.91,0,1,0,0,1,NONE,204,1073
2026-05-27T23:42:19.724,1232685,0.96,-0.16,-0.33,28.0,42.8,14.0,-8.4,18.9,26.2,101.134,36.91,0,1,0,0,1,NONE,87,431
2026-05-27T23:42:19.774,1232737,0.93,-0.26,-0.35,28.0,20.4,24.4,-9.9,17.5,27.0,101.134,36.91,0,1,0,0,1,NONE,55,225
2026-05-27T23:42:19.821,1232783,0.88,-0.17,-0.36,18.6,31.2,19.7,-10.8,17.3,27.8,101.131,36.91,0,1,0,0,1,NONE,42,293
2026-05-27T23:42:19.871,1232835,0.83,-0.18,-0.42,13.3,34.4,10.7,-11.7,16.2,27.3,101.132,36.91,0,1,0,0,1,NONE,80,452
2026-05-27T23:42:19.923,1232883,0.85,-0.08,-0.49,17.2,46.0,7.3,-12.6,16.1,27.6,101.132,36.91,0,1,0,0,1,NONE,60,337
2026-05-27T23:42:19.962,1232935,0.8,-0.15,-0.52,17.6,44.5,9.2,-14.8,15.5,29.0,101.133,36.91,0,0,0,0,0,NONE,32,183
2026-05-27T23:42:20.024,1232987,0.79,-0.07,-0.55,17.2,59.0,16.3,-16.7,15.8,27.0,101.132,36.91,0,0,0,0,0,NONE,115,439
2026-05-27T23:42:20.072,1233035,0.85,-0.11,-0.61,23.9,43.5,24.3,-18.4,14.8,27.8,101.135,36.91,0,0,0,0,0,NONE,130,528
2026-05-27T23:42:20.122,1233083,0.84,-0.1,-0.65,9.6,51.5,22.5,-20.1,14.9,26.6,101.132,36.91,0,0,0,0,0,NONE,64,369
2026-05-27T23:42:20.171,1233135,0.78,-0.03,-0.7,7.1,54.1,29.1,-21.9,14.8,27.4,101.133,36.91,0,0,0,0,0,NONE,57,246
2026-05-27T23:42:20.222,1233185,0.86,0.02,-0.79,2.0,39.2,22.8,-23.5,14.9,28.4,101.135,36.91,0,0,0,0,0,NONE,62,275
2026-05-27T23:42:20.264,1233234,0.83,-0.02,-0.9,9.8,22.3,19.3,-24.8,15.1,26.5,101.133,36.91,0,0,0,0,0,NONE,60,376
2026-05-27T23:42:20.315,1233285,0.83,0.06,-0.86,3.7,15.7,11.0,-25.8,15.5,25.9,101.13,36.91,0,0,0,0,0,NONE,42,270
2026-05-27T23:42:20.375,1233337,0.88,0.07,-0.88,4.9,-3.8,5.1,-26.0,15.5,26.8,101.135,36.92,0,0,0,0,0,NONE,60,298
2026-05-27T23:42:20.419,1233383,0.86,0.08,-0.78,10.6,-17.4,1.5,-25.9,15.1,26.3,101.134,36.91,0,0,0,0,0,NONE,44,257
2026-05-27T23:42:20.470,1233435,0.89,0.04,-0.75,0.9,-22.5,-6.8,-25.3,15.3,27.4,101.133,36.91,0,0,0,0,0,NONE,51,237
2026-05-27T23:42:20.520,1233483,0.9,0.04,-0.78,-4.2,-36.0,-11.3,-23.7,14.6,26.8,101.134,36.91,0,0,0,0,0,NONE,39,179
2026-05-27T23:42:20.571,1233535,0.84,0.1,-0.65,5.8,-49.6,-9.7,-21.8,15.4,26.8,101.131,36.91,0,0,0,0,0,NONE,43,238
2026-05-27T23:42:20.614,1233587,0.83,-0.03,-0.66,0.1,-53.6,-13.5,-19.8,15.0,27.5,101.13,36.91,0,0,0,0,0,NONE,106,803
2026-05-27T23:42:20.673,1233635,0.81,0.03,-0.42,-0.6,-40.3,-14.6,-18.0,14.7,26.9,101.129,36.91,0,0,0,0,0,NONE,404,2099
2026-05-27T23:42:20.708,1233683,1.03,-0.09,-0.6,-14.6,-41.5,-13.9,-16.9,15.1,26.7,101.127,36.91,0,0,0,0,0,NONE,744,3393
2026-05-27T23:42:20.774,1233735,1.02,0.14,-0.41,-3.1,-84.8,-9.0,-14.1,15.3,27.0,101.132,36.91,0,0,0,0,0,NONE,934,4906
2026-05-27T23:42:20.822,1233785,0.65,-0.04,-0.23,-3.2,-49.7,-3.1,-11.0,14.9,26.1,101.127,36.91,0,0,0,0,0,NONE,431,2206
2026-05-27T23:42:20.874,1233833,0.65,-0.16,-0.29,-23.9,-14.6,0.3,-9.7,15.9,26.8,101.125,36.91,0,0,0,0,0,NONE,236,1302
2026-05-27T23:42:20.920,1233885,0.56,-0.09,-0.23,-11.8,-40.7,6.5,-8.7,16.3,26.5,101.124,36.91,0,0,0,0,0,NONE,78,429
2026-05-27T23:42:20.976,1233937,0.59,-0.05,-0.33,17.7,-43.2,2.0,-6.9,16.3,26.2,101.13,36.91,0,1,0,0,1,NONE,67,349
2026-05-27T23:42:21.016,1233983,0.61,-0.05,-0.33,-0.5,-25.1,-12.4,-5.4,16.1,25.9,101.126,36.91,0,1,0,0,1,NONE,56,267
2026-05-27T23:42:21.075,1234035,0.87,-0.08,-0.28,2.5,-15.7,-10.9,-4.7,16.3,26.1,101.129,36.91,0,1,0,0,1,NONE,74,161
2026-05-27T23:42:21.121,1234083,0.95,-0.07,-0.31,8.8,-21.6,-11.0,-3.8,16.2,24.6,101.129,36.91,0,1,0,0,1,NONE,60,293
2026-05-27T23:42:21.175,1234135,0.87,-0.15,-0.17,-2.0,-20.6,-7.1,-2.8,16.3,24.0,101.129,36.91,0,1,0,0,1,NONE,73,335
2026-05-27T23:42:21.217,1234187,0.94,-0.18,-0.24,-4.5,-0.4,-8.7,-2.3,16.4,25.0,101.127,36.91,0,1,0,0,1,NONE,71,434
2026-05-27T23:42:21.265,1234235,0.89,-0.12,-0.19,-11.2,2.4,-4.0,-1.7,16.6,24.4,101.129,36.91,0,1,0,0,1,NONE,80,269
2026-05-27T23:42:21.313,1234283,0.96,-0.19,-0.24,-11.0,10.1,-2.9,-1.8,17.2,25.9,101.128,36.91,0,1,0,0,1,NONE,64,251
2026-05-27T23:42:21.366,1234335,0.92,-0.1,-0.22,-14.9,10.7,-4.6,-1.9,17.7,24.6,101.125,36.91,0,1,0,0,1,NONE,80,224
2026-05-27T23:42:21.424,1234385,1.01,-0.2,-0.14,-15.9,12.6,-3.7,-2.4,18.3,25.6,101.131,36.91,0,1,0,0,1,NONE,42,196
2026-05-27T23:42:21.471,1234433,0.96,-0.19,-0.18,-27.2,18.5,-5.5,-2.7,19.5,26.0,101.129,36.91,0,1,0,0,1,NONE,89,376
2026-05-27T23:42:21.522,1234485,1.0,-0.22,-0.2,-16.2,9.3,-5.7,-3.4,20.4,27.2,101.128,36.91,0,1,0,0,1,NONE,85,480
2026-05-27T23:42:21.566,1234537,0.93,-0.3,-0.08,-11.4,-2.9,-7.9,-3.7,20.8,26.4,101.131,36.91,0,1,0,0,1,NONE,50,186
2026-05-27T23:42:21.614,1234583,0.92,-0.27,-0.12,-5.2,8.4,-0.9,-3.6,21.6,26.5,101.127,36.91,0,1,0,0,1,NONE,42,209
2026-05-27T23:42:21.668,1234635,0.9,-0.19,-0.09,4.0,4.9,8.1,-3.1,21.4,26.8,101.129,36.91,0,0,0,0,0,NONE,52,128
2026-05-27T23:42:21.715,1234683,0.85,-0.22,-0.22,18.6,23.7,18.2,-3.7,21.0,28.0,101.13,36.91,0,0,0,0,0,NONE,43,116
2026-05-27T23:42:21.775,1234735,0.88,-0.19,-0.4,13.1,33.7,15.4,-4.5,20.6,26.6,101.13,36.91,0,1,0,0,1,NONE,41,194
2026-05-27T23:42:21.824,1234785,0.87,-0.22,-0.36,6.6,33.1,9.9,-5.3,20.4,27.9,101.127,36.91,0,1,0,0,1,NONE,48,313
2026-05-27T23:42:21.871,1234833,0.86,-0.15,-0.29,16.7,45.0,10.4,-6.8,20.1,27.9,101.127,36.91,0,1,0,0,1,NONE,56,313
2026-05-27T23:42:21.922,1234885,0.75,-0.08,-0.33,10.9,35.3,8.9,-8.0,19.3,28.4,101.13,36.91,0,1,0,0,1,NONE,49,279
2026-05-27T23:42:21.967,1234937,0.73,-0.18,-0.26,40.8,37.6,0.2,-8.8,19.8,29.0,101.133,36.91,0,0,0,0,0,NONE,55,365
2026-05-27T23:42:22.015,1234983,0.76,-0.06,-0.31,14.2,49.5,-3.7,-10.3,19.1,28.4,101.13,36.91,0,0,0,0,0,NONE,39,246
2026-05-27T23:42:22.075,1235035,0.97,-0.01,-0.35,4.2,24.8,12.8,-11.2,18.6,29.4,101.131,36.91,0,0,0,0,0,NONE,47,216
2026-05-27T23:42:22.120,1235083,0.7,-0.1,-0.35,-10.3,51.9,15.4,-12.5,18.7,29.0,101.13,36.91,0,0,0,0,0,NONE,45,212
2026-05-27T23:42:22.168,1235135,1.17,0.1,-0.52,23.9,47.9,7.9,-13.9,19.2,29.2,101.132,36.91,0,0,0,0,0,NONE,51,263
2026-05-27T23:42:22.222,1235187,0.64,-0.13,-0.46,-0.5,62.6,8.6,-16.0,18.4,29.5,101.13,36.91,0,0,0,0,0,NONE,34,150
2026-05-27T23:42:22.264,1235234,0.6,-0.16,-0.51,11.2,65.1,-3.3,-18.3,18.6,29.3,101.133,36.9,0,0,0,0,0,NONE,23,147
2026-05-27T23:42:22.312,1235283,0.8,-0.08,-0.48,45.5,65.9,6.3,-19.8,18.2,28.6,101.131,36.91,0,0,0,0,0,NONE,22,108
2026-05-27T23:42:22.370,1235335,0.83,-0.03,-0.52,-8.1,57.7,1.9,-22.1,17.0,28.5,101.128,36.91,0,0,0,0,0,NONE,28,132
2026-05-27T23:42:22.424,1235385,0.88,-0.11,-0.88,9.3,35.6,-2.2,-23.3,17.4,29.0,101.135,36.91,0,0,0,0,0,NONE,65,97
2026-05-27T23:42:22.472,1235433,0.98,-0.12,-0.93,12.4,18.7,-15.7,-23.9,17.8,27.4,101.132,36.9,0,0,0,0,0,NONE,35,214
2026-05-27T23:42:22.524,1235485,0.72,-0.06,-0.7,17.9,-12.6,-9.2,-24.9,17.0,28.3,101.132,36.91,0,0,0,0,0,NONE,37,249
2026-05-27T23:42:22.567,1235537,0.71,-0.14,-0.69,-1.9,-10.3,-9.3,-23.9,16.5,28.2,101.133,36.91,0,0,0,0,0,NONE,41,175
2026-05-27T23:42:22.614,1235583,0.88,-0.08,-0.94,2.9,-3.9,-6.5,-23.7,17.1,28.4,101.13,36.91,0,0,0,0,0,NONE,30,152
2026-05-27T23:42:22.670,1235635,0.74,-0.15,-0.8,-10.7,-45.2,-14.0,-23.3,16.7,29.2,101.132,36.91,0,0,0,0,0,NONE,31,159
2026-05-27T23:42:22.721,1235683,0.88,-0.07,-0.84,-7.7,-41.2,-12.8,-20.8,17.2,29.0,101.131,36.91,0,0,0,0,0,NONE,36,152
2026-05-27T23:42:22.763,1235735,0.75,-0.15,-0.53,-5.1,-73.2,-15.0,-19.1,18.0,29.8,101.131,36.91,0,0,0,0,0,NONE,101,493
2026-05-27T23:42:22.826,1235786,0.9,-0.13,-0.69,1.0,-27.6,-6.0,-17.7,17.3,29.9,101.132,36.91,0,0,0,0,0,NONE,207,948
2026-05-27T23:42:22.874,1235834,1.11,-0.25,-0.67,-6.3,-56.5,-10.0,-16.4,17.9,30.2,101.135,36.91,0,0,0,0,0,NONE,251,1007
2026-05-27T23:42:22.922,1235883,0.75,-0.23,-0.33,0.7,-31.5,-1.6,-14.8,18.8,28.9,101.135,36.9,0,0,0,0,0,NONE,274,1177
2026-05-27T23:42:22.973,1235935,0.84,-0.18,-0.33,-6.3,-41.3,-4.3,-13.3,18.7,28.4,101.136,36.91,0,0,0,0,0,NONE,322,1328
2026-05-27T23:42:23.023,1235985,0.95,-0.27,-0.36,1.0,-38.6,-6.1,-11.9,18.9,28.2,101.133,36.91,0,0,0,0,0,NONE,284,1272
2026-05-27T23:42:23.064,1236033,0.84,-0.28,-0.27,-8.7,-38.2,-5.2,-10.5,18.8,27.8,101.136,36.91,0,0,0,0,0,NONE,249,1170
2026-05-27T23:42:23.112,1236085,0.86,-0.27,-0.24,2.7,-14.8,6.3,-9.0,18.8,27.9,101.137,36.91,0,0,0,0,0,NONE,141,609
2026-05-27T23:42:23.176,1236137,0.93,-0.21,-0.27,-1.2,-24.8,12.1,-8.4,19.0,27.2,101.132,36.91,0,1,0,0,1,NONE,63,285
2026-05-27T23:42:23.208,1236183,0.96,-0.11,-0.19,0.4,-12.5,5.6,-7.6,19.1,27.8,101.135,36.9,0,1,0,0,1,NONE,31,157
2026-05-27T23:42:23.275,1236235,0.91,-0.17,-0.16,-6.2,-21.9,0.1,-7.1,19.6,26.9,101.135,36.91,0,1,0,0,1,NONE,40,148
2026-05-27T23:42:23.323,1236283,0.96,-0.17,-0.11,0.9,4.5,-0.9,-6.8,19.6,26.9,101.137,36.91,0,1,0,0,1,NONE,51,235
2026-05-27T23:42:23.369,1236335,1.05,-0.18,-0.16,-5.0,-18.9,5.6,-6.0,19.8,28.3,101.131,36.91,0,1,0,0,1,NONE,113,430
2026-05-27T23:42:23.419,1236386,0.87,-0.24,-0.22,-4.2,-4.2,2.5,-6.2,20.0,25.2,101.133,36.91,0,1,0,0,1,NONE,39,239
2026-05-27T23:42:23.469,1236435,0.97,-0.16,-0.2,-5.7,2.6,4.8,-5.6,19.6,27.8,101.134,36.91,0,1,0,0,1,NONE,87,358
2026-05-27T23:42:23.518,1236486,0.96,-0.18,-0.27,-4.1,-2.6,5.6,-6.4,19.9,26.8,101.131,36.91,0,1,0,0,1,NONE,120,341
2026-05-27T23:42:23.571,1236533,0.91,-0.22,-0.1,-0.1,-5.9,4.7,-5.3,20.6,26.3,101.131,36.91,0,1,0,0,1,NONE,105,651
2026-05-27T23:42:23.625,1236587,1.0,-0.24,-0.21,16.0,-2.7,14.8,-4.9,20.0,26.1,101.135,36.91,0,1,0,0,1,NONE,165,1235
2026-05-27T23:42:23.666,1236633,0.88,-0.2,-0.09,11.2,-1.7,11.1,-5.6,19.0,26.0,101.131,36.91,0,1,0,0,1,NONE,95,478
2026-05-27T23:42:23.722,1236683,0.96,-0.15,-0.13,8.0,5.2,4.4,-4.8,18.7,26.9,101.132,36.91,0,1,0,0,1,NONE,233,1572
2026-05-27T23:42:23.769,1236733,0.97,-0.12,-0.1,3.2,2.3,-0.7,-5.2,18.8,27.0,101.138,36.91,0,1,0,0,1,NONE,253,1397
2026-05-27T23:42:23.818,1236785,0.97,-0.06,-0.2,2.0,13.5,-5.4,-5.2,19.4,25.8,101.129,36.91,0,1,0,0,1,NONE,152,947
2026-05-27T23:42:23.869,1236833,0.93,-0.25,-0.11,5.2,22.7,-12.8,-6.0,18.9,26.0,101.134,36.91,0,1,0,0,1,NONE,167,1007
2026-05-27T23:42:23.927,1236885,0.93,-0.17,-0.23,-6.5,32.0,-6.4,-6.8,19.7,26.3,101.131,36.91,0,1,0,0,1,NONE,126,680
2026-05-27T23:42:23.976,1236937,0.95,-0.24,-0.22,11.0,23.9,4.1,-7.4,19.9,26.3,101.134,36.9,0,1,0,0,1,NONE,119,610
2026-05-27T23:42:24.024,1236985,0.91,-0.24,-0.23,10.8,27.4,7.1,-8.0,20.2,27.1,101.135,36.91,0,1,0,0,1,NONE,159,966
2026-05-27T23:42:24.072,1237033,0.92,-0.17,-0.29,17.2,35.8,6.7,-8.4,19.1,27.2,101.133,36.91,0,0,0,0,0,NONE,212,1281
2026-05-27T23:42:24.125,1237085,0.85,-0.14,-0.29,18.8,47.5,5.3,-10.0,18.8,28.2,101.133,36.9,0,0,0,0,0,NONE,152,1119
2026-05-27T23:42:24.170,1237137,0.89,-0.17,-0.32,14.0,61.6,5.5,-11.4,18.2,27.8,101.132,36.91,0,1,0,0,1,NONE,64,368
2026-05-27T23:42:24.217,1237183,0.85,-0.18,-0.39,16.8,66.2,6.3,-13.5,17.8,27.4,101.138,36.9,0,1,0,0,1,NONE,36,240
2026-05-27T23:42:24.271,1237237,0.88,-0.14,-0.41,16.7,64.6,10.2,-15.1,18.2,28.5,101.135,36.9,0,1,0,0,1,NONE,46,261
2026-05-27T23:42:24.311,1237283,0.9,-0.17,-0.49,19.7,70.7,18.2,-17.2,16.9,28.4,101.13,36.91,0,1,0,0,1,NONE,86,502
2026-05-27T23:42:24.371,1237335,1.05,-0.28,-0.67,24.2,42.7,18.5,-19.1,15.9,28.6,101.135,36.91,0,0,0,0,0,NONE,55,316
2026-05-27T23:42:24.427,1237386,0.96,-0.08,-0.73,38.8,65.4,11.2,-20.8,15.7,29.2,101.134,36.9,0,0,0,0,0,NONE,86,210
2026-05-27T23:42:24.471,1237435,0.91,-0.17,-0.91,21.0,23.9,11.9,-22.5,15.2,28.1,101.135,36.91,0,0,0,0,0,NONE,66,467
2026-05-27T23:42:24.522,1237483,0.78,-0.02,-0.74,15.4,18.0,2.4,-22.6,15.2,28.3,101.131,36.91,0,0,0,0,0,NONE,71,374
2026-05-27T23:42:24.571,1237535,0.71,0.07,-0.8,11.3,18.2,14.9,-22.8,14.7,27.0,101.132,36.91,0,0,0,0,0,NONE,53,283
2026-05-27T23:42:24.615,1237585,0.7,0.03,-0.69,13.9,24.7,10.8,-24.2,14.4,26.6,101.134,36.91,0,0,0,0,0,NONE,38,205
2026-05-27T23:42:24.672,1237633,0.7,-0.0,-0.78,2.1,13.0,2.0,-24.7,15.1,27.4,101.133,36.91,0,0,0,0,0,NONE,138,729
2026-05-27T23:42:24.712,1237685,0.72,-0.03,-0.81,6.5,12.8,-1.3,-25.3,14.3,27.5,101.133,36.91,0,0,0,0,0,NONE,344,2074
2026-05-27T23:42:24.776,1237737,0.87,0.07,-0.83,10.5,4.6,3.0,-24.9,14.6,27.0,101.135,36.91,0,0,0,0,0,NONE,421,2420
2026-05-27T23:42:24.823,1237783,0.88,-0.02,-0.86,6.0,-16.0,5.7,-24.8,14.5,26.7,101.133,36.9,0,0,0,0,0,NONE,823,3830
2026-05-27T23:42:24.875,1237835,0.92,0.05,-0.83,2.6,-26.9,-1.0,-24.6,13.6,27.6,101.133,36.9,0,0,0,0,0,NONE,606,3322
2026-05-27T23:42:24.920,1237883,0.96,0.02,-0.79,6.4,-41.3,-1.4,-23.4,14.4,25.5,101.132,36.91,0,0,0,0,0,NONE,551,2936
2026-05-27T23:42:24.974,1237935,0.86,-0.02,-0.73,1.1,-44.8,-6.6,-21.6,14.0,26.2,101.135,36.91,0,0,0,0,0,NONE,588,2683
2026-05-27T23:42:25.019,1237986,0.69,-0.06,-0.48,3.4,-51.0,-1.8,-19.9,13.7,26.8,101.132,36.9,0,0,0,0,0,NONE,343,1625
2026-05-27T23:42:25.074,1238035,0.85,-0.0,-0.47,-6.8,-45.8,-5.5,-18.3,13.6,27.0,101.13,36.91,0,0,0,0,0,NONE,215,1095
2026-05-27T23:42:25.119,1238083,0.75,-0.03,-0.38,-7.9,-50.3,-2.1,-16.4,14.2,26.6,101.131,36.91,0,0,0,0,0,NONE,110,620
2026-05-27T23:42:25.174,1238135,0.78,0.02,-0.43,-4.5,-54.0,-1.5,-14.8,14.6,27.1,101.133,36.91,0,0,0,0,0,NONE,82,424
2026-05-27T23:42:25.213,1238185,0.79,0.03,-0.26,-9.5,-53.3,-4.5,-12.7,14.1,26.2,101.128,36.9,0,0,0,0,0,NONE,92,315
2026-05-27T23:42:25.273,1238233,0.85,-0.05,-0.3,-15.7,-53.3,-13.2,-11.0,14.0,26.9,101.13,36.9,0,0,0,0,0,NONE,133,388
2026-05-27T23:42:25.324,1238285,0.67,0.03,-0.13,-34.2,-26.2,-7.6,-8.8,14.7,26.1,101.126,36.91,0,0,0,0,0,NONE,152,336
2026-05-27T23:42:25.374,1238337,0.68,-0.11,-0.36,-17.0,-21.7,-2.5,-8.2,16.4,26.1,101.128,36.9,0,1,0,0,1,NONE,70,370
2026-05-27T23:42:25.420,1238383,0.86,-0.09,-0.29,15.4,-45.4,8.1,-7.0,16.6,26.7,101.131,36.91,0,1,0,0,1,NONE,77,355
2026-05-27T23:42:25.475,1238435,0.97,-0.06,-0.24,55.1,-57.9,3.8,-5.4,15.6,27.0,101.127,36.9,0,1,0,0,1,NONE,179,1192
2026-05-27T23:42:25.511,1238483,0.9,-0.09,-0.2,32.3,-38.8,-3.2,-3.8,15.1,24.0,101.131,36.91,0,1,0,0,1,NONE,62,329
2026-05-27T23:42:25.575,1238535,0.89,-0.04,-0.16,13.2,-22.2,-8.4,-2.4,13.8,23.0,101.128,36.91,0,1,0,0,1,NONE,67,353
2026-05-27T23:42:25.625,1238586,0.92,-0.07,-0.2,4.0,-0.1,-9.9,-2.4,13.7,23.9,101.132,36.91,0,1,0,0,1,NONE,56,373
2026-05-27T23:42:25.674,1238635,0.98,-0.1,-0.18,17.8,-9.8,-9.0,-1.6,14.0,22.9,101.126,36.9,0,1,0,0,1,NONE,158,1198
2026-05-27T23:42:25.722,1238683,0.94,-0.08,-0.14,20.2,-3.5,-3.5,-1.3,13.9,22.0,101.13,36.91,0,1,0,0,1,NONE,97,793
2026-05-27T23:42:25.772,1238735,0.92,-0.17,-0.15,9.9,3.0,-2.6,-0.9,13.3,21.9,101.131,36.9,0,1,0,0,1,NONE,44,264
2026-05-27T23:42:25.819,1238785,0.96,-0.12,-0.19,2.6,9.2,-1.6,-0.5,12.9,21.8,101.132,36.9,0,1,0,0,1,NONE,98,536
2026-05-27T23:42:25.862,1238833,0.98,-0.12,-0.15,7.5,5.2,-2.0,-0.5,13.7,21.3,101.127,36.91,0,1,0,0,1,NONE,109,710
2026-05-27T23:42:25.914,1238885,0.95,-0.14,-0.13,13.2,9.1,-0.5,-0.8,13.8,22.8,101.13,36.9,0,1,0,0,1,NONE,217,1160
2026-05-27T23:42:25.974,1238937,0.97,-0.13,-0.11,14.9,11.7,-1.0,-0.4,12.6,21.4,101.13,36.9,0,1,0,0,1,NONE,231,1188
2026-05-27T23:42:26.023,1238983,0.96,-0.13,-0.16,4.7,14.3,-1.5,-0.5,13.1,21.5,101.131,36.9,0,1,0,0,1,NONE,138,873
2026-05-27T23:42:26.075,1239035,0.94,-0.15,-0.19,3.2,18.7,-2.1,-0.9,12.9,21.8,101.13,36.9,0,1,0,0,1,NONE,110,712
2026-05-27T23:42:26.121,1239083,0.95,-0.18,-0.17,-10.4,15.3,-0.9,-0.9,13.7,21.5,101.127,36.91,0,1,0,0,1,NONE,44,279
2026-05-27T23:42:26.170,1239135,0.93,-0.17,-0.17,-15.3,16.3,-1.3,-1.7,13.4,22.7,101.129,36.9,0,1,0,0,1,NONE,98,561
2026-05-27T23:42:26.224,1239187,0.91,-0.19,-0.23,-16.9,19.5,-0.2,-1.9,14.4,24.0,101.128,36.9,0,1,0,0,1,NONE,213,1298
2026-05-27T23:42:26.262,1239235,0.93,-0.24,-0.19,-26.9,18.3,-1.3,-2.3,14.3,23.8,101.127,36.9,0,1,0,0,1,NONE,266,1702
2026-05-27T23:42:26.313,1239283,0.97,-0.23,-0.16,-29.7,24.8,-0.1,-2.4,15.3,23.6,101.128,36.9,0,1,0,0,1,NONE,191,1129
2026-05-27T23:42:26.375,1239335,1.02,-0.2,-0.16,-15.5,15.5,-1.7,-3.3,16.2,24.2,101.131,36.91,0,1,0,0,1,NONE,120,800
2026-05-27T23:42:26.421,1239385,0.95,-0.2,-0.21,-7.5,11.4,-2.0,-3.3,16.7,24.7,101.133,36.9,0,1,0,0,1,NONE,73,486
2026-05-27T23:42:26.468,1239434,0.89,-0.19,-0.18,-2.8,8.9,-2.3,-3.8,17.5,25.6,101.129,36.9,0,1,0,0,1,NONE,88,755
2026-05-27T23:42:26.516,1239485,0.87,-0.19,-0.18,12.0,18.6,2.4,-3.8,17.8,26.0,101.132,36.91,0,1,0,0,1,NONE,78,625
2026-05-27T23:42:26.565,1239537,0.89,-0.18,-0.29,17.6,22.2,4.6,-4.5,17.6,25.9,101.13,36.9,0,1,0,0,1,NONE,68,435
2026-05-27T23:42:26.612,1239583,0.9,-0.25,-0.29,18.9,12.1,3.7,-5.0,17.2,26.1,101.132,36.91,0,1,0,0,1,NONE,129,829
2026-05-27T23:42:26.672,1239635,0.97,-0.29,-0.27,9.0,21.8,8.0,-5.4,16.3,25.8,101.13,36.9,0,1,0,0,1,NONE,117,815
2026-05-27T23:42:26.709,1239683,0.99,-0.29,-0.34,-0.3,18.5,8.2,-6.2,16.4,25.6,101.127,36.9,0,1,0,0,1,NONE,58,334
2026-05-27T23:42:26.774,1239735,0.97,-0.09,-0.21,3.6,13.0,15.3,-6.9,16.5,26.5,101.126,36.89,0,1,0,0,1,NONE,86,429
2026-05-27T23:42:26.824,1239787,0.93,-0.04,-0.44,63.7,7.1,7.8,-7.0,16.6,25.9,101.131,36.9,0,1,0,0,1,NONE,96,656
2026-05-27T23:42:26.873,1239835,0.67,-0.12,-0.25,41.9,-14.4,6.0,-7.5,14.6,24.7,101.128,36.91,0,1,0,0,1,NONE,71,419
2026-05-27T23:42:26.921,1239883,0.83,-0.24,-0.14,2.6,37.3,5.7,-7.2,13.8,26.1,101.126,36.89,0,1,0,0,1,NONE,54,343
2026-05-27T23:42:26.971,1239932,1.03,0.02,-0.51,-4.9,41.0,7.8,-7.2,13.8,26.1,101.132,36.9,0,0,0,0,0,NONE,117,691
2026-05-27T23:42:27.015,1239987,0.81,0.06,-0.34,7.4,10.3,17.9,-9.5,13.5,25.6,101.127,36.9,0,0,0,0,0,NONE,138,716
2026-05-27T23:42:27.059,1240033,0.59,-0.14,-0.3,-9.2,40.3,19.4,-10.2,13.5,26.0,101.129,36.89,0,1,0,0,1,NONE,120,585
2026-05-27T23:42:27.123,1240083,0.65,-0.01,-0.35,-22.3,51.7,19.4,-12.4,15.1,27.1,101.129,36.9,0,1,0,0,1,NONE,241,1572
2026-05-27T23:42:27.171,1240134,0.66,0.21,-0.69,3.2,84.4,9.4,-14.5,15.0,26.5,101.127,36.9,0,0,0,0,0,NONE,114,669
2026-05-27T23:42:27.220,1240185,0.96,-0.14,-0.63,7.0,34.9,12.5,-16.6,14.6,27.3,101.131,36.9,0,0,0,0,0,NONE,179,1156
2026-05-27T23:42:27.273,1240234,0.54,0.03,-0.47,-9.2,46.4,7.7,-18.2,15.6,27.0,101.132,36.89,0,0,0,0,0,NONE,184,1172
2026-05-27T23:42:27.320,1240285,0.82,0.07,-0.41,45.2,45.0,14.5,-20.1,14.0,25.8,101.131,36.89,0,0,0,0,0,NONE,94,582
2026-05-27T23:42:27.368,1240335,0.74,-0.15,-0.55,-5.2,69.6,1.3,-21.1,14.4,26.9,101.134,36.9,0,0,0,0,0,NONE,46,281
2026-05-27T23:42:27.415,1240383,0.9,-0.04,-0.88,15.4,94.1,-2.3,-23.8,13.9,25.4,101.133,36.89,0,0,0,0,0,NONE,67,321
2026-05-27T23:42:27.466,1240435,0.77,-0.23,-0.79,-4.9,64.1,7.4,-25.8,15.0,26.3,101.131,36.89,0,0,0,0,0,NONE,50,250
2026-05-27T23:42:27.522,1240483,0.67,0.12,-0.88,-2.2,63.4,-1.6,-27.1,14.5,26.1,101.13,36.89,0,0,0,0,0,NONE,51,291
2026-05-27T23:42:27.573,1240535,0.68,0.02,-0.84,23.7,50.8,2.6,-28.7,15.0,25.4,101.134,36.89,0,0,0,0,0,NONE,80,518
2026-05-27T23:42:27.622,1240583,0.63,-0.11,-0.84,8.5,20.5,1.2,-29.9,15.5,25.8,101.137,36.9,0,0,0,0,0,NONE,93,481
2026-05-27T23:42:27.669,1240635,0.5,0.0,-0.78,-9.3,5.5,-3.2,-29.9,14.9,25.7,101.132,36.9,0,0,0,0,0,NONE,107,513
2026-05-27T23:42:27.718,1240685,0.65,0.02,-0.74,17.5,-7.1,-7.6,-29.4,15.0,26.0,101.135,36.89,0,0,0,0,0,NONE,47,219
2026-05-27T23:42:27.767,1240733,0.65,-0.19,-0.82,-17.5,-10.7,-8.4,-28.6,15.1,25.0,101.133,36.89,0,0,0,0,0,NONE,70,245
2026-05-27T23:42:27.813,1240785,0.54,-0.05,-0.86,-27.3,-31.7,-8.9,-28.3,15.5,25.8,101.135,36.89,0,0,0,0,0,NONE,75,433
2026-05-27T23:42:27.876,1240837,0.61,-0.07,-0.83,3.1,-43.0,-4.8,-27.3,16.0,26.2,101.135,36.89,0,0,0,0,0,NONE,203,977
2026-05-27T23:42:27.921,1240883,0.68,-0.1,-0.94,-5.1,-29.2,-1.7,-25.8,15.7,26.6,101.136,36.9,0,0,0,0,0,NONE,60,286
2026-05-27T23:42:27.975,1240935,0.87,-0.18,-1.06,-19.8,-52.9,-13.2,-24.6,15.6,27.8,101.135,36.89,0,0,0,0,0,NONE,317,1297
2026-05-27T23:42:28.017,1240983,0.84,-0.1,-0.88,-9.0,-46.9,-3.8,-22.2,16.3,28.3,101.135,36.89,0,0,0,0,0,NONE,377,1652
2026-05-27T23:42:28.066,1241035,1.04,-0.18,-0.9,-0.7,-55.1,-2.7,-20.9,16.3,29.4,101.136,36.89,0,0,0,0,0,NONE,172,1136
2026-05-27T23:42:28.114,1241087,0.83,-0.19,-0.48,-3.8,-67.6,-1.5,-18.8,16.6,27.6,101.133,36.89,0,0,0,0,0,NONE,75,360
2026-05-27T23:42:28.166,1241135,0.82,-0.19,-0.45,-6.5,-52.7,-2.0,-16.9,16.4,28.5,101.136,36.89,0,0,0,0,0,NONE,257,1447
2026-05-27T23:42:28.220,1241183,0.9,-0.17,-0.43,-9.9,-72.3,-5.7,-14.9,16.8,28.6,101.134,36.89,0,0,0,0,0,NONE,337,1580
2026-05-27T23:42:28.274,1241235,0.81,-0.18,-0.38,-3.0,-54.8,-10.7,-12.4,16.8,27.2,101.132,36.9,0,0,0,0,0,NONE,254,1075
2026-05-27T23:42:28.322,1241285,0.87,-0.19,-0.32,-8.7,-41.6,-2.7,-10.8,17.3,27.1,101.134,36.89,0,0,0,0,0,NONE,155,702
2026-05-27T23:42:28.372,1241333,0.89,-0.19,-0.32,-5.8,-26.1,1.5,-10.0,17.0,27.5,101.135,36.89,0,1,0,0,1,NONE,151,634
2026-05-27T23:42:28.423,1241385,0.92,-0.2,-0.29,-7.8,-17.3,3.1,-9.8,17.0,27.2,101.134,36.9,0,1,0,0,1,NONE,169,1007
2026-05-27T23:42:28.473,1241437,0.98,-0.24,-0.24,-6.3,-32.4,4.3,-8.1,18.3,27.1,101.134,36.89,0,1,0,0,1,NONE,246,1136
2026-05-27T23:42:28.514,1241483,0.91,-0.24,-0.22,4.0,-26.5,4.4,-7.9,17.9,26.5,101.135,36.89,0,1,0,0,1,NONE,108,633
2026-05-27T23:42:28.565,1241535,0.94,-0.19,-0.18,-2.8,-33.7,5.4,-6.4,18.1,26.4,101.134,36.89,0,1,0,0,1,NONE,78,451
2026-05-27T23:42:28.622,1241583,0.88,-0.16,-0.16,4.0,-18.2,5.2,-5.2,17.9,25.8,101.137,36.89,0,1,0,0,1,NONE,82,456
2026-05-27T23:42:28.674,1241635,0.94,-0.25,-0.13,-12.9,-10.4,6.5,-4.9,17.7,25.8,101.134,36.89,0,1,0,0,1,NONE,77,421
2026-05-27T23:42:28.724,1241687,0.95,-0.11,-0.09,-3.5,-0.9,6.8,-5.1,18.8,25.0,101.134,36.89,0,1,0,0,1,NONE,59,335
2026-05-27T23:42:28.772,1241735,0.89,-0.22,-0.11,0.7,-5.7,6.5,-4.2,18.6,25.6,101.134,36.89,0,1,0,0,1,NONE,38,205
2026-05-27T23:42:28.823,1241783,0.92,-0.2,-0.15,1.8,14.7,3.9,-4.5,18.2,25.3,101.134,36.89,0,1,0,0,1,NONE,38,137
2026-05-27T23:42:28.865,1241835,0.97,-0.19,-0.15,6.3,0.4,2.9,-4.8,18.1,25.2,101.138,36.89,0,1,0,0,1,NONE,23,99
2026-05-27T23:42:28.915,1241885,0.95,-0.16,-0.16,2.9,7.4,6.3,-4.8,18.3,26.9,101.139,36.89,0,1,0,0,1,NONE,32,186
2026-05-27T23:42:28.964,1241933,0.9,-0.17,-0.17,5.2,18.2,3.2,-5.3,18.6,25.3,101.137,36.89,0,1,0,0,1,NONE,42,221
2026-05-27T23:42:29.024,1241985,1.0,-0.18,-0.14,15.8,17.5,1.4,-5.9,18.4,24.8,101.128,36.89,0,1,0,0,1,NONE,28,141
2026-05-27T23:42:29.073,1242037,0.93,-0.17,-0.16,9.2,25.1,5.1,-6.3,17.9,26.2,101.138,36.89,0,1,0,0,1,NONE,86,503
2026-05-27T23:42:29.121,1242083,0.9,-0.17,-0.17,12.8,39.8,4.8,-7.7,17.5,26.1,101.132,36.89,0,1,0,0,1,NONE,116,478
2026-05-27T23:42:29.172,1242135,0.94,-0.14,-0.21,9.8,43.9,3.8,-8.1,18.1,25.4,101.132,36.89,0,0,0,0,0,NONE,89,468
2026-05-27T23:42:29.216,1242183,0.88,-0.15,-0.28,7.1,50.0,0.4,-8.7,17.4,26.1,101.134,36.89,0,0,0,0,0,NONE,54,289
2026-05-27T23:42:29.267,1242235,0.9,-0.12,-0.33,7.8,55.9,-5.4,-10.4,17.4,26.9,101.136,36.89,0,0,0,0,0,NONE,55,332
2026-05-27T23:42:29.315,1242287,0.85,-0.21,-0.46,15.5,44.0,-1.7,-11.9,17.5,27.4,101.133,36.89,0,0,0,0,0,NONE,39,191
2026-05-27T23:42:29.364,1242335,0.77,-0.15,-0.33,10.6,76.3,0.7,-13.3,17.4,27.5,101.137,36.89,0,0,0,0,0,NONE,66,348
2026-05-27T23:42:29.425,1242383,0.89,-0.16,-0.37,27.0,77.4,6.5,-15.2,17.3,28.5,101.134,36.89,0,0,0,0,0,NONE,50,245
2026-05-27T23:42:29.475,1242435,0.94,-0.33,-0.44,-5.2,68.5,7.9,-16.9,16.7,27.6,101.136,36.89,0,0,0,0,0,NONE,56,225
2026-05-27T23:42:29.521,1242485,0.91,-0.06,-0.76,23.6,82.8,23.9,-19.7,17.0,29.5,101.137,36.89,0,0,0,0,0,NONE,73,273
2026-05-27T23:42:29.569,1242533,0.69,-0.18,-0.73,52.9,78.9,31.3,-21.9,16.5,28.1,101.131,36.89,0,0,0,0,0,NONE,111,698
2026-05-27T23:42:29.620,1242585,0.67,-0.06,-0.8,27.0,91.2,28.3,-24.5,15.5,25.7,101.135,36.89,0,0,0,0,0,NONE,107,589
2026-05-27T23:42:29.669,1242637,0.64,-0.03,-1.01,8.9,77.8,15.0,-27.2,15.1,26.1,101.132,36.89,0,0,0,0,0,NONE,172,749
2026-05-27T23:42:29.723,1242683,0.45,-0.06,-0.94,11.8,66.5,11.5,-30.2,14.7,25.5,101.132,36.89,0,0,0,0,0,NONE,150,912
2026-05-27T23:42:29.772,1242735,0.52,0.01,-0.91,20.1,38.0,5.6,-31.6,15.3,24.7,101.137,36.89,0,0,0,0,0,NONE,144,789
2026-05-27T23:42:29.809,1242783,0.5,-0.0,-0.98,14.5,23.2,7.3,-32.4,14.8,24.3,101.133,36.89,0,0,0,0,0,NONE,123,674
2026-05-27T23:42:29.874,1242835,0.48,0.05,-0.99,29.5,3.8,5.3,-33.5,14.6,22.9,101.132,36.89,0,0,0,0,0,NONE,47,251
2026-05-27T23:42:29.923,1242885,0.48,0.09,-1.07,15.4,0.1,-1.8,-33.1,14.1,24.0,101.133,36.89,0,0,0,0,0,NONE,39,205
2026-05-27T23:42:29.972,1242934,0.52,0.13,-0.99,6.0,-3.4,-4.0,-32.8,14.4,24.3,101.133,36.89,0,0,0,0,0,NONE,35,203
2026-05-27T23:42:30.025,1242985,0.71,0.15,-1.11,4.4,-9.2,0.4,-32.7,13.8,23.3,101.135,36.9,0,0,0,0,0,NONE,36,140
2026-05-27T23:42:30.081,1243037,0.68,0.17,-1.01,0.5,-28.0,-4.6,-32.4,13.6,23.4,101.135,36.89,0,0,0,0,0,NONE,21,174
2026-05-27T23:42:30.118,1243083,0.81,0.17,-1.07,3.6,-38.9,-0.5,-31.5,13.4,24.4,101.132,36.89,0,0,0,0,0,NONE,42,138
2026-05-27T23:42:30.166,1243137,0.76,0.01,-0.89,5.6,-59.4,0.3,-30.5,13.6,24.8,101.131,36.89,0,0,0,0,0,NONE,37,141
2026-05-27T23:42:30.214,1243183,0.74,0.15,-0.79,-2.2,-59.0,-7.0,-28.6,13.7,26.2,101.132,36.88,0,0,0,0,0,NONE,40,125
2026-05-27T23:42:30.274,1243235,0.69,0.09,-0.72,-2.7,-68.1,-16.5,-27.1,13.8,25.5,101.132,36.89,0,0,0,0,0,NONE,66,433
2026-05-27T23:42:30.324,1243287,0.55,0.05,-0.47,-0.2,-66.3,-13.1,-24.9,13.2,24.7,101.129,36.88,0,0,0,0,0,NONE,94,633
2026-05-27T23:42:30.371,1243335,0.65,0.03,-0.57,-12.3,-63.2,-12.5,-22.4,13.4,26.7,101.127,36.89,0,0,0,0,0,NONE,97,480
2026-05-27T23:42:30.423,1243383,0.67,-0.04,-0.53,-11.5,-80.9,-4.6,-20.4,13.1,26.9,101.131,36.89,0,0,0,0,0,NONE,56,291
2026-05-27T23:42:30.465,1243435,0.68,0.04,-0.44,-9.7,-84.8,-1.2,-15.3,13.9,25.8,101.132,36.89,0,0,0,0,0,NONE,557,2406
2026-05-27T23:42:30.513,1243485,0.65,-0.15,-0.37,-23.4,-78.7,-6.0,-11.7,14.4,26.3,101.131,36.89,0,0,0,0,0,NONE,912,4063
2026-05-27T23:42:30.571,1243534,0.55,-0.28,-0.11,-20.4,-83.3,2.5,-8.9,15.3,26.2,101.129,36.89,0,1,0,0,1,NONE,754,2801
2026-05-27T23:42:30.613,1243585,0.86,0.09,-0.39,-14.2,-31.9,5.4,-7.7,15.7,25.5,101.132,36.89,0,1,0,0,1,NONE,464,2035
2026-05-27T23:42:30.672,1243637,0.92,-0.13,-0.25,5.4,-40.6,-12.6,-5.6,15.9,24.7,101.131,36.89,0,1,0,0,1,NONE,490,2034
2026-05-27T23:42:30.720,1243683,0.87,-0.02,-0.24,2.3,-12.3,-17.4,-4.6,15.8,25.9,101.128,36.89,0,1,0,0,1,NONE,291,1555
2026-05-27T23:42:30.768,1243735,0.91,-0.08,-0.2,11.4,-8.5,-14.1,-4.1,16.4,26.0,101.129,36.88,0,1,0,0,1,NONE,81,465
2026-05-27T23:42:30.822,1243783,0.77,-0.12,-0.3,25.6,22.5,-16.0,-3.3,16.0,26.3,101.127,36.89,0,1,0,0,1,NONE,68,380
2026-05-27T23:42:30.867,1243836,0.91,-0.2,-0.16,24.4,-17.6,-12.2,-2.4,15.0,23.5,101.133,36.89,0,1,0,0,1,NONE,101,470
2026-05-27T23:42:30.916,1243887,0.9,-0.19,-0.19,9.5,-11.5,-4.2,-2.1,15.1,22.6,101.131,36.89,0,1,0,0,1,NONE,84,306
2026-05-27T23:42:30.977,1243935,0.94,-0.11,-0.23,3.1,1.0,-5.2,-1.9,15.0,23.0,101.131,36.89,0,1,0,0,1,NONE,96,436
2026-05-27T23:42:31.024,1243986,1.0,0.02,-0.17,1.3,-2.0,-8.1,-1.5,15.2,23.9,101.127,36.89,0,1,0,0,1,NONE,99,242
2026-05-27T23:42:31.072,1244033,0.94,-0.24,-0.15,-0.4,10.1,-10.2,-1.1,16.0,24.4,101.13,36.89,0,1,0,0,1,NONE,81,209
2026-05-27T23:42:31.120,1244087,0.94,-0.18,-0.13,-3.9,3.9,-3.4,-1.0,15.6,24.7,101.132,36.89,0,1,0,0,1,NONE,71,149
2026-05-27T23:42:31.168,1244133,0.96,-0.24,-0.19,-5.4,5.7,-2.3,-1.4,16.3,23.9,101.129,36.89,0,1,0,0,1,NONE,90,413
2026-05-27T23:42:31.221,1244183,0.92,-0.18,-0.15,3.2,6.7,4.5,-1.6,16.1,25.1,101.131,36.89,0,1,0,0,1,NONE,82,215
2026-05-27T23:42:31.274,1244235,0.97,-0.2,-0.18,5.6,7.9,4.6,-2.5,16.4,24.5,101.13,36.89,0,1,0,0,1,NONE,58,247
2026-05-27T23:42:31.317,1244287,0.95,-0.23,-0.15,0.7,7.3,2.4,-1.5,16.4,24.0,101.133,36.89,0,1,0,0,1,NONE,102,655
2026-05-27T23:42:31.366,1244335,0.94,-0.2,-0.18,-1.5,13.7,2.0,-2.1,16.8,24.5,101.124,36.88,0,1,0,0,1,NONE,45,242
2026-05-27T23:42:31.417,1244383,0.92,-0.21,-0.19,-6.8,18.6,0.8,-2.2,16.7,24.2,101.13,36.89,0,1,0,0,1,NONE,39,123
2026-05-27T23:42:31.471,1244435,0.97,-0.21,-0.23,-7.2,15.1,-1.2,-2.6,17.3,25.5,101.128,36.89,0,1,0,0,1,NONE,66,476
2026-05-27T23:42:31.519,1244483,0.91,-0.17,-0.22,-7.8,16.4,-0.2,-3.3,17.1,24.0,101.127,36.89,0,1,0,0,1,NONE,77,412
2026-05-27T23:42:31.573,1244535,0.94,-0.25,-0.24,-9.9,24.8,2.6,-3.5,17.8,24.7,101.13,36.89,0,1,0,0,1,NONE,34,206
2026-05-27T23:42:31.620,1244583,0.93,-0.23,-0.22,-25.0,21.2,3.2,-3.8,17.9,26.2,101.131,36.88,0,1,0,0,1,NONE,32,149
2026-05-27T23:42:31.675,1244636,0.94,-0.21,-0.2,-0.2,19.8,5.1,-4.1,18.5,26.9,101.129,36.89,0,1,0,0,1,NONE,26,119
2026-05-27T23:42:31.718,1244685,0.92,-0.19,-0.2,7.8,18.7,7.8,-4.7,18.4,26.6,101.129,36.88,0,1,0,0,1,NONE,38,198
2026-05-27T23:42:31.770,1244733,0.85,-0.19,-0.3,16.1,26.2,9.5,-5.3,18.3,26.8,101.13,36.89,0,1,0,0,1,NONE,24,106
2026-05-27T23:42:31.823,1244785,0.85,-0.2,-0.4,19.4,34.1,13.9,-6.2,18.3,26.7,101.13,36.89,0,1,0,0,1,NONE,26,123
2026-05-27T23:42:31.875,1244837,0.8,-0.16,-0.49,30.9,44.6,17.8,-7.3,17.3,28.2,101.131,36.89,0,0,0,0,0,NONE,18,99
2026-05-27T23:42:31.920,1244883,0.72,-0.06,-0.64,41.8,38.0,13.3,-9.4,15.8,26.4,101.128,36.89,0,0,0,0,0,NONE,36,149
2026-05-27T23:42:31.975,1244937,0.57,-0.15,-0.14,29.6,39.2,8.7,-9.8,15.6,25.9,101.13,36.89,0,0,0,0,0,NONE,46,89
2026-05-27T23:42:32.019,1244983,0.86,-0.21,-0.49,-8.9,93.1,3.6,-11.5,15.6,27.6,101.132,36.89,0,0,0,0,0,NONE,53,130
2026-05-27T23:42:32.066,1245035,1.35,-0.2,-0.79,28.0,39.3,-16.8,-14.4,15.6,28.1,101.13,36.89,0,0,0,0,0,NONE,41,204
2026-05-27T23:42:32.119,1245087,0.76,-0.12,-0.18,10.3,43.2,9.5,-15.1,15.2,26.6,101.131,36.89,0,0,0,0,0,NONE,37,184
2026-05-27T23:42:32.175,1245135,0.88,0.0,-0.7,7.4,102.5,6.3,-17.5,15.3,27.3,101.133,36.89,0,0,0,0,0,NONE,34,155
2026-05-27T23:42:32.222,1245183,0.48,-0.01,-0.3,-36.9,59.8,12.7,-20.3,15.8,27.4,101.135,36.89,0,0,0,0,0,NONE,23,130
2026-05-27T23:42:32.273,1245235,0.52,-0.05,-0.77,23.5,88.3,15.7,-22.0,16.1,28.2,101.133,36.89,0,0,0,0,0,NONE,28,172
2026-05-27T23:42:32.323,1245285,0.82,-0.09,-0.68,39.5,48.0,14.2,-24.6,15.6,27.2,101.134,36.89,0,0,0,0,0,NONE,31,201
2026-05-27T23:42:32.371,1245334,0.68,-0.04,-0.76,-14.8,55.3,3.2,-26.6,14.7,26.5,101.133,36.89,0,0,0,0,0,NONE,30,151
2026-05-27T23:42:32.423,1245385,0.59,-0.14,-0.88,15.8,55.2,6.5,-27.8,16.2,25.1,101.132,36.89,0,0,0,0,0,NONE,25,126
2026-05-27T23:42:32.464,1245437,0.61,-0.09,-1.07,0.1,41.0,5.7,-30.1,15.8,26.2,101.134,36.89,0,0,0,0,0,NONE,35,123
2026-05-27T23:42:32.515,1245483,0.7,0.1,-1.11,24.9,39.7,3.7,-30.4,15.1,26.1,101.136,36.89,0,0,0,0,0,NONE,49,278
2026-05-27T23:42:32.560,1245535,0.46,-0.15,-0.88,18.8,33.1,6.3,-31.9,15.1,24.0,101.136,36.89,0,0,0,0,0,NONE,101,455
2026-05-27T23:42:32.616,1245583,0.59,-0.06,-1.03,-0.5,30.6,5.8,-32.7,15.4,24.5,101.136,36.89,0,0,0,0,0,NONE,38,188
2026-05-27T23:42:32.672,1245636,0.51,0.11,-0.93,12.3,19.9,-4.0,-33.3,15.0,24.9,101.138,36.89,0,0,0,0,0,NONE,38,184
2026-05-27T23:42:32.722,1245685,0.52,-0.05,-0.97,2.7,-6.8,-5.7,-33.8,15.3,23.2,101.135,36.89,0,0,0,0,0,NONE,77,375
2026-05-27T23:42:32.771,1245733,0.52,-0.08,-1.01,-4.0,-22.9,-3.7,-33.2,15.1,25.1,101.137,36.89,0,0,0,0,0,NONE,57,241
2026-05-27T23:42:32.820,1245785,0.45,-0.05,-0.88,-7.3,-28.7,-6.1,-32.2,14.7,25.2,101.137,36.89,0,0,0,0,0,NONE,50,259
2026-05-27T23:42:32.869,1245837,0.5,-0.04,-0.83,-14.5,-41.9,-11.2,-31.5,15.5,25.3,101.138,36.89,0,0,0,0,0,NONE,81,480
2026-05-27T23:42:32.922,1245883,0.52,-0.18,-0.95,-21.5,-43.2,-10.7,-29.8,15.7,24.6,101.136,36.89,0,0,0,0,0,NONE,53,258
2026-05-27T23:42:32.961,1245937,0.66,-0.11,-0.93,-29.1,-55.8,-10.5,-28.7,16.0,27.0,101.136,36.88,0,0,0,0,0,NONE,75,385
2026-05-27T23:42:33.014,1245983,0.87,-0.13,-1.26,-14.0,-35.2,-6.0,-27.1,16.3,27.4,101.133,36.88,0,0,0,0,0,NONE,60,387
2026-05-27T23:42:33.073,1246035,0.77,-0.22,-0.81,-15.5,-69.6,-2.4,-25.4,17.2,28.8,101.134,36.89,0,0,0,0,0,NONE,131,629
2026-05-27T23:42:33.126,1246087,0.69,-0.19,-0.5,-16.7,-51.3,5.6,-23.1,17.2,27.2,101.14,36.89,0,0,0,0,0,NONE,322,1353
2026-05-27T23:42:33.172,1246135,0.84,-0.17,-0.55,-10.2,-67.3,0.8,-21.2,17.6,28.1,101.137,36.89,0,0,0,0,0,NONE,263,1286
2026-05-27T23:42:33.225,1246183,0.85,-0.2,-0.67,-4.1,-74.5,-4.5,-19.7,17.8,29.3,101.134,36.89,0,0,0,0,0,NONE,259,1227
2026-05-27T23:42:33.264,1246235,0.74,-0.19,-0.46,1.0,-68.4,-7.0,-17.0,17.7,28.3,101.133,36.89,0,0,0,0,0,NONE,167,741
2026-05-27T23:42:33.312,1246285,0.89,-0.21,-0.52,-8.2,-45.7,-3.6,-15.1,18.0,28.1,101.137,36.89,0,0,0,0,0,NONE,73,484
2026-05-27T23:42:33.360,1246333,0.81,-0.19,-0.4,-2.5,-58.2,1.1,-13.3,18.6,28.3,101.134,36.88,0,0,0,0,0,NONE,38,199
2026-05-27T23:42:33.423,1246385,0.84,-0.23,-0.27,-3.5,-47.7,2.5,-11.3,18.8,28.5,101.134,36.89,0,0,0,0,0,NONE,36,238
2026-05-27T23:42:33.475,1246437,0.89,-0.29,-0.28,-14.6,-38.7,3.6,-9.6,18.6,27.5,101.136,36.89,0,1,0,0,1,NONE,76,479
2026-05-27T23:42:33.519,1246483,0.96,-0.19,-0.24,-5.1,-24.2,5.9,-8.2,19.6,28.1,101.136,36.88,0,1,0,0,1,NONE,56,284
2026-05-27T23:42:33.566,1246535,0.92,-0.23,-0.11,-10.5,-32.3,10.9,-7.1,19.3,27.1,101.135,36.88,0,1,0,0,1,NONE,86,412
2026-05-27T23:42:33.614,1246583,0.93,-0.21,-0.16,0.9,-24.1,10.9,-6.7,19.7,27.1,101.136,36.89,0,1,0,0,1,NONE,72,352
2026-05-27T23:42:33.675,1246635,0.94,-0.17,-0.18,-2.5,-17.2,7.8,-5.8,19.9,26.9,101.134,36.89,0,0,0,0,0,NONE,112,743
2026-05-27T23:42:33.724,1246685,0.95,-0.22,-0.14,1.3,-15.6,7.4,-5.1,19.7,26.2,101.138,36.89,0,0,0,0,0,NONE,92,511
2026-05-27T23:42:33.772,1246733,0.93,-0.15,-0.13,10.6,-8.0,4.1,-4.9,20.2,25.4,101.134,36.88,0,1,0,0,1,NONE,141,786
2026-05-27T23:42:33.819,1246785,0.96,-0.15,-0.13,2.1,-6.2,-0.5,-4.5,19.8,26.0,101.132,36.88,0,1,0,0,1,NONE,132,803
2026-05-27T23:42:33.867,1246837,0.93,-0.26,-0.08,-5.2,-6.8,-3.1,-3.8,19.7,25.1,101.132,36.89,0,1,0,0,1,NONE,86,557
2026-05-27T23:42:33.915,1246883,0.93,-0.17,-0.14,0.6,8.1,-1.3,-3.9,19.9,24.9,101.135,36.9,0,1,0,0,1,NONE,58,335
2026-05-27T23:42:33.963,1246937,0.91,-0.21,-0.09,1.9,11.0,2.0,-3.6,20.5,24.6,101.14,36.89,0,1,0,0,1,NONE,62,335
2026-05-27T23:42:34.010,1246983,0.94,-0.21,-0.1,1.6,17.2,1.1,-4.4,20.5,24.3,101.135,36.89,0,1,0,0,1,NONE,60,390
2026-05-27T23:42:34.074,1247035,0.97,-0.17,-0.15,7.1,23.4,5.7,-4.9,20.2,26.8,101.135,36.89,0,1,0,0,1,NONE,102,689
2026-05-27T23:42:34.125,1247087,0.94,-0.27,-0.12,5.1,17.1,3.6,-5.6,20.4,26.7,101.136,36.89,0,1,0,0,1,NONE,99,544
2026-05-27T23:42:34.173,1247135,0.94,-0.12,-0.12,4.8,35.5,4.6,-6.1,19.6,26.7,101.135,36.89,0,0,0,0,0,NONE,36,216
2026-05-27T23:42:34.221,1247183,0.92,-0.21,-0.24,18.9,41.1,-2.3,-7.2,19.3,26.7,101.133,36.89,0,0,0,0,0,NONE,127,626
2026-05-27T23:42:34.270,1247235,0.93,-0.21,-0.19,2.0,39.4,-4.2,-8.3,19.6,27.1,101.136,36.89,0,0,0,0,0,NONE,60,327
2026-05-27T23:42:34.314,1247285,0.89,-0.21,-0.27,12.2,51.8,-2.4,-9.5,19.5,27.3,101.139,36.89,0,0,0,0,0,NONE,112,514
2026-05-27T23:42:34.363,1247334,0.87,-0.16,-0.37,12.1,61.4,0.0,-11.0,19.4,28.2,101.136,36.89,0,1,0,0,1,NONE,48,311
2026-05-27T23:42:34.420,1247385,0.83,-0.18,-0.37,16.1,67.7,0.2,-12.9,19.3,29.7,101.133,36.89,0,1,0,0,1,NONE,44,242
2026-05-27T23:42:34.475,1247437,0.81,-0.22,-0.49,20.4,84.4,8.5,-15.3,19.6,28.8,101.135,36.89,0,0,0,0,0,NONE,46,236
2026-05-27T23:42:34.512,1247483,0.83,-0.21,-0.54,22.8,90.4,9.9,-18.2,18.4,29.2,101.139,36.89,0,0,0,0,0,NONE,54,300
2026-05-27T23:42:34.572,1247535,0.78,-0.22,-0.49,39.5,79.3,20.1,-20.5,17.7,29.0,101.137,36.89,0,0,0,0,0,NONE,45,235
2026-05-27T23:42:34.621,1247583,0.8,-0.11,-0.7,35.5,84.2,28.3,-23.7,17.3,27.5,101.135,36.89,0,0,0,0,0,NONE,46,223
2026-05-27T23:42:34.669,1247635,0.69,-0.06,-0.75,25.5,85.1,22.0,-26.0,16.4,26.5,101.139,36.89,0,0,0,0,0,NONE,77,284
2026-05-27T23:42:34.721,1247685,0.65,-0.11,-0.93,24.1,87.8,19.1,-28.6,16.1,27.1,101.132,36.89,0,0,0,0,0,NONE,66,347
2026-05-27T23:42:34.771,1247733,0.55,-0.04,-0.95,17.9,72.1,21.5,-30.7,16.1,25.9,101.135,36.9,0,0,0,0,0,NONE,39,232
2026-05-27T23:42:34.816,1247785,0.49,0.0,-0.98,24.9,72.1,21.0,-32.8,16.1,25.8,101.135,36.89,0,0,0,0,0,NONE,51,226
2026-05-27T23:42:34.861,1247837,0.41,0.06,-0.97,13.7,58.2,11.0,-34.8,15.9,24.2,101.138,36.89,0,0,0,0,0,NONE,94,500
2026-05-27T23:42:34.910,1247883,0.43,0.07,-1.06,29.4,48.5,8.5,-36.0,15.4,22.5,101.136,36.89,0,0,0,0,0,NONE,130,613
2026-05-27T23:42:34.976,1247937,0.38,0.08,-1.02,16.4,21.3,6.8,-36.7,15.6,21.9,101.139,36.89,0,0,0,0,0,NONE,51,215
2026-05-27T23:42:35.021,1247983,0.36,0.12,-1.06,23.5,2.9,3.0,-36.8,14.9,23.3,101.139,36.89,0,0,0,0,0,NONE,43,209
2026-05-27T23:42:35.070,1248035,0.47,0.15,-1.18,7.7,-7.3,5.5,-36.8,14.8,21.8,101.134,36.89,0,0,0,0,0,NONE,49,174
2026-05-27T23:42:35.123,1248086,0.57,0.13,-1.19,2.0,-28.6,6.4,-35.8,14.6,23.5,101.133,36.89,0,0,0,0,0,NONE,64,339
2026-05-27T23:42:35.173,1248135,0.62,0.18,-1.14,0.6,-38.3,-1.2,-35.6,14.1,23.3,101.134,36.88,0,0,0,0,0,NONE,61,407
2026-05-27T23:42:35.222,1248183,0.74,0.14,-1.12,-5.2,-35.6,-15.0,-33.8,14.2,23.9,101.135,36.88,0,0,0,0,0,NONE,87,548
2026-05-27T23:42:35.274,1248235,0.53,0.1,-1.01,5.1,-69.8,-1.5,-32.7,13.7,23.8,101.133,36.88,0,0,0,0,0,NONE,39,240
2026-05-27T23:42:35.320,1248285,0.61,-0.04,-0.71,-4.3,-100.2,11.4,-30.8,13.8,25.3,101.134,36.89,0,0,0,0,0,NONE,56,250
2026-05-27T23:42:35.372,1248333,0.67,-0.02,-0.78,-22.8,-88.3,0.4,-28.9,14.6,27.0,101.134,36.89,0,0,0,0,0,NONE,97,767
2026-05-27T23:42:35.422,1248385,0.75,0.09,-0.6,-2.5,-91.4,1.4,-26.5,14.8,26.6,101.133,36.89,0,0,0,0,0,NONE,334,2349
2026-05-27T23:42:35.469,1248437,0.54,0.04,-0.52,-22.6,-78.9,-7.0,-23.4,15.5,27.1,101.133,36.88,0,0,0,0,0,NONE,614,3239
2026-05-27T23:42:35.521,1248483,0.64,0.21,-0.38,-5.4,-62.6,-7.2,-20.9,15.5,28.2,101.133,36.89,0,0,0,0,0,NONE,359,2295
2026-05-27T23:42:35.575,1248535,0.66,-0.05,-0.45,-18.2,-74.0,1.9,-18.0,16.1,27.3,101.135,36.89,0,0,0,0,0,NONE,259,1481
2026-05-27T23:42:35.615,1248583,0.68,-0.0,-0.48,-6.3,-63.0,-1.0,-15.4,16.3,27.6,101.132,36.89,0,0,0,0,0,NONE,112,642
2026-05-27T23:42:35.661,1248635,0.88,0.13,-0.31,6.4,-74.9,8.9,-12.5,16.1,28.2,101.132,36.89,0,1,0,0,1,NONE,148,898
2026-05-27T23:42:35.725,1248687,0.6,-0.0,-0.3,3.1,-69.8,8.2,-10.8,16.3,27.9,101.132,36.89,0,1,0,0,1,NONE,137,756
2026-05-27T23:42:35.772,1248735,0.9,0.2,-0.19,54.4,-79.9,12.9,-8.5,15.1,26.5,101.129,36.88,0,1,0,0,1,NONE,131,840
2026-05-27T23:42:35.821,1248783,0.92,-0.03,-0.3,53.4,-49.4,-4.9,-6.3,13.3,25.6,101.132,36.88,0,1,0,0,1,NONE,64,438
2026-05-27T23:42:35.870,1248835,0.96,-0.06,-0.11,51.9,-33.5,-9.7,-4.9,12.3,22.5,101.129,36.89,0,1,0,0,1,NONE,70,339
2026-05-27T23:42:35.915,1248885,0.99,-0.01,-0.22,37.7,-41.9,-4.2,-3.6,11.1,23.3,101.129,36.89,0,1,0,0,1,NONE,79,440
2026-05-27T23:42:35.968,1248933,0.82,0.07,0.06,11.8,-22.7,-7.9,-2.6,10.5,20.6,101.13,36.89,0,1,0,0,1,NONE,84,424
2026-05-27T23:42:36.023,1248985,0.85,-0.08,-0.16,16.2,25.8,-4.8,-1.8,10.1,20.8,101.129,36.88,0,1,0,0,1,NONE,103,562
2026-05-27T23:42:36.075,1249037,0.94,0.01,-0.1,-0.2,13.7,-16.7,-1.6,9.9,21.1,101.131,36.89,0,1,0,0,1,NONE,101,623
2026-05-27T23:42:36.111,1249083,0.97,-0.05,-0.15,-15.9,14.5,-17.5,-1.6,10.3,21.4,101.128,36.89,0,1,0,0,1,NONE,178,1046
2026-05-27T23:42:36.174,1249135,0.97,-0.08,-0.0,-9.5,-2.0,-11.4,-1.5,11.1,21.4,101.132,36.89,0,1,0,0,1,NONE,72,413
2026-05-27T23:42:36.223,1249183,1.0,-0.05,-0.03,-28.8,12.9,-3.7,-1.0,11.8,21.4,101.13,36.88,0,1,0,0,1,NONE,140,747
2026-05-27T23:42:36.271,1249235,1.02,-0.02,-0.09,-19.1,20.5,-3.5,-1.0,12.5,22.3,101.131,36.88,0,1,0,0,1,NONE,143,823
2026-05-27T23:42:36.325,1249287,0.95,0.01,-0.11,-4.1,6.3,-4.7,-1.7,12.5,23.1,101.13,36.88,0,1,0,0,1,NONE,102,686
2026-05-27T23:42:36.363,1249335,0.98,-0.08,-0.08,-1.5,4.0,-4.5,-1.5,13.1,23.6,101.13,36.89,0,1,0,0,1,NONE,43,302
2026-05-27T23:42:36.415,1249383,0.96,-0.04,-0.07,2.7,4.1,-2.1,-2.2,13.0,23.8,101.13,36.89,0,1,0,0,1,NONE,42,220
2026-05-27T23:42:36.474,1249435,1.03,0.09,-0.13,7.6,-3.7,-8.9,-2.4,13.9,22.4,101.126,36.88,0,1,0,0,1,NONE,54,253
2026-05-27T23:42:36.523,1249485,0.98,-0.14,-0.12,23.9,-6.6,2.0,-1.6,13.7,22.9,101.125,36.88,0,1,0,0,1,NONE,51,269
2026-05-27T23:42:36.572,1249533,0.96,-0.21,-0.1,45.0,0.5,9.9,-1.2,13.4,23.1,101.13,36.89,0,1,0,0,1,NONE,36,219
2026-05-27T23:42:36.623,1249585,0.92,-0.11,-0.06,18.0,3.2,9.1,-1.2,12.0,21.1,101.13,36.88,0,1,0,0,1,NONE,37,147
2026-05-27T23:42:36.672,1249637,0.97,-0.12,-0.12,1.6,24.7,6.2,-0.6,11.6,22.3,101.128,36.89,0,1,0,0,1,NONE,72,410
2026-05-27T23:42:36.717,1249683,0.9,-0.09,-0.15,-4.9,29.1,5.2,-2.0,11.3,21.2,101.128,36.89,0,1,0,0,1,NONE,78,442
2026-05-27T23:42:36.773,1249735,0.9,-0.05,-0.21,-2.6,35.0,7.0,-3.0,11.5,22.1,101.13,36.88,0,1,0,0,1,NONE,45,237
2026-05-27T23:42:36.821,1249783,0.89,-0.03,-0.22,1.8,42.5,8.4,-3.1,12.2,25.1,101.129,36.88,0,1,0,0,1,NONE,89,583
2026-05-27T23:42:36.862,1249835,0.87,-0.05,-0.3,4.3,55.4,9.2,-4.5,12.4,24.3,101.133,36.89,0,1,0,0,1,NONE,46,197
2026-05-27T23:42:36.925,1249887,0.87,-0.06,-0.31,-1.3,74.2,13.6,-5.9,11.8,24.9,101.13,36.88,0,1,0,0,1,NONE,22,112
2026-05-27T23:42:36.971,1249935,0.8,-0.08,-0.42,-0.5,82.8,14.7,-8.1,12.5,24.8,101.134,36.88,0,1,0,0,1,NONE,28,136
2026-05-27T23:42:37.022,1249983,0.87,-0.02,-0.49,-6.7,75.9,15.1,-10.6,12.0,26.1,101.134,36.89,0,1,0,0,1,NONE,25,134
2026-05-27T23:42:37.071,1250035,0.81,-0.1,-0.44,-24.0,67.3,14.7,-13.0,13.5,25.9,101.129,36.89,0,0,0,0,0,NONE,26,127
2026-05-27T23:42:37.120,1250085,1.21,0.05,-0.64,-6.1,74.3,-2.1,-14.9,13.6,27.1,101.133,36.89,0,0,0,0,0,NONE,82,436
2026-05-27T23:42:37.165,1250134,0.8,-0.03,-0.48,4.9,61.4,0.7,-17.2,13.8,27.4,101.13,36.89,0,0,0,0,0,NONE,133,582
2026-05-27T23:42:37.226,1250185,0.69,0.02,-0.63,-13.9,90.3,2.7,-18.8,14.2,28.0,101.134,36.88,0,0,0,0,0,NONE,66,371
2026-05-27T23:42:37.276,1250237,0.67,-0.02,-0.53,4.8,67.1,5.7,-21.3,15.2,28.9,101.133,36.88,0,0,0,0,0,NONE,43,265
2026-05-27T23:42:37.321,1250283,0.7,-0.1,-0.86,20.3,93.0,5.7,-23.7,14.7,26.5,101.135,36.88,0,0,0,0,0,NONE,40,237
2026-05-27T23:42:37.374,1250335,0.55,0.04,-0.64,9.4,54.4,2.1,-26.6,14.2,26.8,101.131,36.89,0,0,0,0,0,NONE,84,536
2026-05-27T23:42:37.415,1250383,0.43,-0.05,-0.75,25.0,80.7,-1.3,-28.1,14.7,26.9,101.135,36.89,0,0,0,0,0,NONE,95,463
2026-05-27T23:42:37.467,1250435,0.53,-0.07,-0.84,-4.3,77.3,-4.1,-33.3,14.2,24.7,101.133,36.88,0,0,0,0,0,NONE,97,447
2026-05-27T23:42:37.511,1250485,0.58,0.03,-1.1,-8.8,51.4,-9.0,-33.5,14.5,24.6,101.133,36.88,0,0,0,0,0,NONE,105,415
2026-05-27T23:42:37.562,1250533,0.2,-0.13,-0.82,10.4,53.3,-0.9,-34.4,15.3,22.5,101.135,36.88,0,0,0,0,0,NONE,77,361
2026-05-27T23:42:37.623,1250585,0.39,-0.18,-0.94,5.1,49.6,-4.9,-35.1,14.7,22.2,101.134,36.88,0,0,0,0,0,NONE,69,365
2026-05-27T23:42:37.675,1250637,0.46,0.14,-1.0,23.1,42.8,0.1,-36.1,14.4,21.7,101.134,36.88,0,0,0,0,0,NONE,57,303
2026-05-27T23:42:37.719,1250683,0.29,-0.08,-1.07,-5.2,28.7,-9.3,-36.5,14.5,22.2,101.136,36.88,0,0,0,0,0,NONE,91,511
2026-05-27T23:42:37.767,1250735,0.33,-0.05,-0.94,30.6,-4.5,-4.8,-36.7,13.8,21.7,101.135,36.89,0,0,0,0,0,NONE,52,295
2026-05-27T23:42:37.818,1250783,0.25,-0.06,-0.97,8.6,10.4,3.4,-36.5,13.5,21.6,101.133,36.88,0,0,0,0,0,NONE,100,640
2026-05-27T23:42:37.863,1250835,0.3,0.02,-1.05,2.0,-9.0,-4.6,-35.8,13.8,20.9,101.136,36.88,0,0,0,0,0,NONE,59,376
2026-05-27T23:42:37.915,1250887,0.3,0.0,-1.06,12.1,-5.2,0.4,-35.9,13.5,20.8,101.136,36.88,0,0,0,0,0,NONE,30,174
2026-05-27T23:42:37.959,1250935,0.23,-0.09,-0.94,-0.1,-20.0,2.2,-34.9,13.8,22.1,101.133,36.88,0,0,0,0,0,NONE,36,166
2026-05-27T23:42:38.020,1250983,0.31,0.05,-0.99,-6.7,-15.7,-4.0,-34.5,13.7,22.3,101.138,36.89,0,0,0,0,0,NONE,36,192
2026-05-27T23:42:38.073,1251035,0.26,-0.07,-0.82,-13.4,-22.0,-3.5,-34.4,14.0,22.5,101.133,36.88,0,0,0,0,0,NONE,29,152
2026-05-27T23:42:38.119,1251083,0.23,-0.05,-0.94,-6.3,-32.2,-1.3,-32.7,13.7,23.6,101.138,36.88,0,0,0,0,0,NONE,42,203
2026-05-27T23:42:38.166,1251135,0.47,-0.06,-1.07,-7.2,-41.6,-8.3,-32.4,14.6,23.8,101.135,36.88,0,0,0,0,0,NONE,43,192
2026-05-27T23:42:38.216,1251185,0.53,-0.11,-1.05,0.0,-64.5,-8.1,-30.7,14.1,24.6,101.137,36.89,0,0,0,0,0,NONE,45,227
2026-05-27T23:42:38.261,1251233,0.67,-0.04,-1.17,-10.3,-64.2,-7.9,-28.6,14.8,26.3,101.138,36.89,0,0,0,0,0,NONE,37,162
2026-05-27T23:42:38.325,1251285,0.95,-0.02,-1.32,7.0,-71.0,-2.5,-26.3,14.4,27.3,101.137,36.88,0,0,0,0,0,NONE,144,682
2026-05-27T23:42:38.374,1251337,0.63,-0.16,-0.69,-17.9,-119.9,7.2,-23.9,14.5,27.1,101.136,36.88,0,0,0,0,0,NONE,224,862
2026-05-27T23:42:38.421,1251383,0.66,-0.16,-0.37,-15.1,-67.9,5.9,-21.1,14.8,27.4,101.135,36.88,0,0,0,0,0,NONE,203,996
2026-05-27T23:42:38.470,1251437,0.95,-0.1,-0.66,-16.5,-101.1,-0.4,-19.0,15.4,27.1,101.136,36.88,0,0,0,0,0,NONE,338,1702
2026-05-27T23:42:38.519,1251486,0.76,-0.21,-0.43,-0.9,-108.0,-9.2,-15.8,15.2,27.7,101.137,36.88,0,0,0,0,0,NONE,463,2745
2026-05-27T23:42:38.563,1251535,0.8,-0.18,-0.36,-4.3,-57.6,-3.7,-13.7,15.9,28.1,101.137,36.88,0,0,0,0,0,NONE,423,1938
2026-05-27T23:42:38.623,1251587,0.81,-0.11,-0.33,0.5,-25.1,3.5,-11.5,15.6,27.1,101.136,36.88,0,0,0,0,0,NONE,315,1275
2026-05-27T23:42:38.672,1251635,0.92,-0.15,-0.28,-2.0,-24.2,1.8,-11.2,16.1,27.3,101.136,36.88,0,0,0,0,0,NONE,133,572
2026-05-27T23:42:38.710,1251683,0.88,-0.15,-0.34,-6.8,-15.2,-4.0,-11.0,16.1,26.5,101.137,36.88,0,0,0,0,0,NONE,98,737
2026-05-27T23:42:38.774,1251735,1.0,-0.2,-0.36,-9.5,-33.2,-0.1,-10.1,16.7,26.5,101.138,36.88,0,1,0,0,1,NONE,111,805
2026-05-27T23:42:38.823,1251785,0.87,-0.15,-0.32,3.3,-18.4,-3.4,-9.3,16.6,26.8,101.136,36.89,0,1,0,0,1,NONE,64,324
2026-05-27T23:42:38.869,1251833,0.93,-0.24,-0.18,-2.5,-22.6,-8.4,-7.4,16.1,25.1,101.138,36.88,0,1,0,0,1,NONE,159,912
2026-05-27T23:42:38.920,1251885,0.94,-0.18,-0.22,-2.1,-8.7,-1.4,-7.1,17.5,25.0,101.139,36.88,0,1,0,0,1,NONE,113,636
2026-05-27T23:42:38.977,1251937,0.87,-0.13,-0.21,5.7,0.4,7.8,-6.7,17.3,25.6,101.133,36.88,0,0,0,0,0,NONE,73,365
2026-05-27T23:42:39.017,1251983,0.96,-0.16,-0.22,-2.0,2.7,12.0,-6.8,16.6,26.0,101.133,36.88,0,0,0,0,0,NONE,100,518
2026-05-27T23:42:39.060,1252035,0.94,-0.13,-0.25,-3.7,-5.3,3.5,-7.0,16.4,26.0,101.135,36.88,0,1,0,0,1,NONE,105,378
2026-05-27T23:42:39.111,1252083,0.92,-0.21,-0.28,2.0,7.3,-2.2,-6.7,16.9,26.5,101.139,36.88,0,1,0,0,1,NONE,106,648
2026-05-27T23:42:39.174,1252135,0.97,-0.16,-0.3,6.8,0.5,-0.9,-6.9,17.0,26.1,101.132,36.88,0,1,0,0,1,NONE,178,1021
2026-05-27T23:42:39.224,1252186,0.92,-0.19,-0.24,5.9,1.8,3.8,-6.8,16.9,26.0,101.136,36.88,0,1,0,0,1,NONE,75,445
2026-05-27T23:42:39.272,1252235,0.97,-0.21,-0.25,-1.2,0.3,0.5,-6.8,17.3,25.8,101.137,36.88,0,0,0,0,0,NONE,74,400
2026-05-27T23:42:39.320,1252283,0.93,-0.23,-0.12,-12.3,-4.9,0.4,-6.8,17.0,25.5,101.136,36.88,0,0,0,0,0,NONE,55,335
2026-05-27T23:42:39.373,1252335,0.94,-0.16,-0.18,7.7,11.4,-1.2,-6.4,17.3,24.7,101.135,36.88,0,0,0,0,0,NONE,61,316
2026-05-27T23:42:39.414,1252385,0.92,-0.18,-0.15,3.1,20.8,4.2,-6.6,17.5,26.3,101.137,36.88,0,0,0,0,0,NONE,120,752
2026-05-27T23:42:39.462,1252433,0.9,-0.19,-0.29,5.8,32.1,-2.3,-7.3,17.2,26.6,101.134,36.88,0,0,0,0,0,NONE,68,344
2026-05-27T23:42:39.510,1252485,0.88,-0.18,-0.23,8.1,45.5,-7.2,-8.4,16.9,26.1,101.136,36.89,0,0,0,0,0,NONE,34,169
2026-05-27T23:42:39.579,1252537,0.88,-0.25,-0.3,25.6,48.8,-2.2,-9.1,17.4,26.7,101.138,36.89,0,0,0,0,0,NONE,30,141
2026-05-27T23:42:39.620,1252583,0.83,-0.16,-0.39,21.4,66.2,-0.4,-10.6,16.5,27.4,101.134,36.89,0,0,0,0,0,NONE,40,161
2026-05-27T23:42:39.671,1252635,0.83,-0.26,-0.42,23.3,69.7,5.1,-12.6,16.9,26.7,101.137,36.88,0,0,0,0,0,NONE,125,630
2026-05-27T23:42:39.718,1252683,0.8,-0.24,-0.48,16.9,77.1,19.3,-14.6,16.8,27.0,101.139,36.89,0,0,0,0,0,NONE,189,1011
2026-05-27T23:42:39.763,1252735,0.77,-0.16,-0.55,17.6,83.8,29.5,-16.6,15.4,26.9,101.137,36.88,0,0,0,0,0,NONE,127,717
2026-05-27T23:42:39.815,1252786,0.76,-0.11,-0.62,18.2,93.8,30.5,-19.3,15.4,29.6,101.138,36.89,0,0,0,0,0,NONE,150,815
2026-05-27T23:42:39.869,1252835,0.68,-0.07,-0.69,23.7,92.3,28.7,-22.4,15.3,28.7,101.141,36.89,0,0,0,0,0,NONE,139,739
2026-05-27T23:42:39.922,1252883,0.67,-0.1,-0.79,26.4,93.3,30.1,-25.5,15.2,27.6,101.138,36.89,0,0,0,0,0,NONE,134,755
2026-05-27T23:42:39.972,1252935,0.61,-0.09,-0.93,29.3,101.4,29.5,-28.2,15.1,26.9,101.139,36.88,0,0,0,0,0,NONE,91,515
2026-05-27T23:42:40.021,1252985,0.58,-0.02,-1.07,13.2,103.5,19.5,-31.9,15.0,25.8,101.137,36.88,0,0,0,0,0,NONE,64,367
2026-05-27T23:42:40.070,1253034,0.53,0.03,-1.07,14.5,65.3,15.8,-34.0,15.0,24.7,101.135,36.88,0,0,0,0,0,NONE,62,255
2026-05-27T23:42:40.113,1253085,0.45,0.13,-1.09,5.9,51.3,0.7,-35.1,15.0,22.8,101.135,36.89,0,0,0,0,0,NONE,77,365
2026-05-27T23:42:40.161,1253137,0.39,0.21,-1.09,18.0,36.2,-7.9,-36.3,15.2,22.5,101.137,36.88,0,0,0,0,0,NONE,183,980
2026-05-27T23:42:40.209,1253183,0.3,-0.06,-1.12,24.2,17.5,-12.3,-37.3,15.2,21.5,101.137,36.88,0,0,0,0,0,NONE,226,1121
2026-05-27T23:42:40.273,1253235,0.36,0.11,-1.11,6.0,-8.0,-12.5,-37.4,14.6,21.6,101.134,36.87,0,0,0,0,0,NONE,169,890
2026-05-27T23:42:40.321,1253283,0.37,0.09,-1.14,9.8,-15.7,-17.9,-36.9,13.8,21.6,101.137,36.88,0,0,0,0,0,NONE,88,561
2026-05-27T23:42:40.371,1253335,0.34,0.05,-1.09,-0.6,-18.4,-13.5,-35.3,13.2,21.4,101.133,36.87,0,0,0,0,0,NONE,184,848
2026-05-27T23:42:40.427,1253387,0.5,0.04,-1.03,-9.7,-32.4,-10.6,-35.4,13.1,21.6,101.137,36.88,0,0,0,0,0,NONE,66,289
2026-05-27T23:42:40.469,1253435,0.45,0.04,-0.94,4.9,-47.3,10.9,-33.8,12.8,23.0,101.136,36.88,0,0,0,0,0,NONE,111,665
2026-05-27T23:42:40.513,1253486,0.49,-0.01,-0.95,-3.9,-61.5,13.2,-32.5,13.0,23.0,101.135,36.88,0,0,0,0,0,NONE,115,707
2026-05-27T23:42:40.563,1253535,0.47,0.11,-0.83,0.1,-67.9,10.7,-31.3,13.6,23.6,101.133,36.89,0,0,0,0,0,NONE,111,684
2026-05-27T23:42:40.612,1253583,0.48,0.11,-0.78,-7.4,-63.1,4.8,-29.6,13.3,23.4,101.131,36.88,0,0,0,0,0,NONE,72,367
2026-05-27T23:42:40.674,1253635,0.59,0.04,-0.7,-0.1,-74.5,0.6,-28.6,13.0,25.5,101.133,36.88,0,0,0,0,0,NONE,79,454
2026-05-27T23:42:40.721,1253685,0.73,0.07,-0.7,-1.8,-64.2,-6.0,-26.6,13.3,27.3,101.13,36.88,0,0,0,0,0,NONE,318,1516
2026-05-27T23:42:40.771,1253733,0.76,0.07,-0.61,3.2,-67.1,-2.0,-24.6,13.2,26.8,101.133,36.87,0,0,0,0,0,NONE,496,2673
2026-05-27T23:42:40.824,1253785,0.75,0.09,-0.5,-1.6,-74.5,1.6,-22.6,13.3,28.0,101.131,36.88,0,0,0,0,0,NONE,300,1555
2026-05-27T23:42:40.876,1253837,0.77,0.0,-0.47,-0.1,-77.8,3.0,-20.0,12.8,27.6,101.134,36.89,0,0,0,0,0,NONE,138,787
2026-05-27T23:42:40.911,1253883,0.71,0.06,-0.46,-4.4,-78.7,4.1,-18.2,12.4,26.8,101.133,36.88,0,0,0,0,0,NONE,121,802
2026-05-27T23:42:40.975,1253937,0.79,0.03,-0.39,1.2,-72.3,0.2,-15.3,12.2,26.5,101.135,36.88,0,0,0,0,0,NONE,50,268
2026-05-27T23:42:41.022,1253983,0.69,-0.1,-0.33,-24.4,-25.6,-8.7,-15.3,12.2,26.5,101.132,36.88,0,0,0,0,0,NONE,76,670
2026-05-27T23:42:41.073,1254035,0.89,0.04,-0.46,15.3,-37.9,2.4,-10.0,12.6,27.0,101.13,36.88,0,0,0,0,0,NONE,127,779
2026-05-27T23:42:41.125,1254087,0.99,-0.05,-0.38,18.1,-51.8,-9.3,-8.3,12.1,25.4,101.129,36.89,0,0,0,0,0,NONE,106,755
2026-05-27T23:42:41.172,1254135,0.79,0.01,-0.33,17.3,-43.2,-7.9,-6.3,12.3,24.1,101.136,36.89,0,1,0,0,1,NONE,130,794
2026-05-27T23:42:41.220,1254183,0.72,0.0,-0.25,7.0,6.7,-25.9,-5.3,12.3,23.8,101.132,36.88,0,1,0,0,1,NONE,125,805
2026-05-27T23:42:41.273,1254235,0.92,-0.04,-0.34,28.3,-18.6,-10.2,-4.9,11.6,23.7,101.134,36.88,0,0,0,0,0,NONE,91,559
2026-05-27T23:42:41.323,1254285,0.88,-0.02,-0.19,12.1,-17.4,-10.5,-4.0,12.0,22.7,101.131,36.88,0,0,0,0,0,NONE,59,442
2026-05-27T23:42:41.373,1254333,0.94,-0.03,-0.19,6.0,9.6,-11.4,-3.3,11.3,22.7,101.131,36.88,0,1,0,0,1,NONE,47,280
2026-05-27T23:42:41.423,1254385,0.97,-0.05,-0.18,4.5,2.4,-8.1,-3.4,11.5,23.1,101.128,36.87,0,1,0,0,1,NONE,63,310
2026-05-27T23:42:41.471,1254437,0.98,-0.07,-0.16,8.5,2.0,-5.3,-3.3,11.6,22.4,101.132,36.88,0,1,0,0,1,NONE,65,253
2026-05-27T23:42:41.514,1254483,0.94,-0.11,-0.15,13.7,4.1,-3.7,-2.3,12.0,22.8,101.129,36.87,0,1,0,0,1,NONE,56,403
2026-05-27T23:42:41.574,1254535,0.97,-0.1,-0.2,12.7,9.5,-3.3,-2.7,11.1,22.4,101.131,36.88,0,1,0,0,1,NONE,49,265
2026-05-27T23:42:41.622,1254583,0.96,-0.1,-0.2,6.4,8.2,-2.0,-2.2,11.7,22.2,101.133,36.89,0,1,0,0,1,NONE,38,203
2026-05-27T23:42:41.674,1254635,0.96,-0.14,-0.17,4.3,8.3,-1.8,-2.4,11.5,22.6,101.133,36.88,0,1,0,0,1,NONE,46,160
2026-05-27T23:42:41.718,1254687,0.95,-0.12,-0.18,4.3,6.0,1.1,-2.8,11.4,22.9,101.133,36.89,0,1,0,0,1,NONE,33,199
2026-05-27T23:42:41.773,1254735,1.0,-0.09,-0.24,-0.2,8.4,4.0,-2.6,11.8,21.5,101.134,36.88,0,1,0,0,1,NONE,49,236
2026-05-27T23:42:41.817,1254783,0.93,-0.14,-0.19,4.3,3.3,4.2,-2.9,11.7,22.4,101.132,36.88,0,1,0,0,1,NONE,43,235
2026-05-27T23:42:41.863,1254835,0.96,-0.09,-0.18,3.9,2.6,6.2,-2.6,11.6,21.6,101.131,36.88,0,1,0,0,1,NONE,46,279
2026-05-27T23:42:41.915,1254885,0.91,-0.1,-0.19,2.0,4.5,4.6,-2.3,11.2,21.7,101.13,36.87,0,1,0,0,1,NONE,47,274
2026-05-27T23:42:41.963,1254934,0.95,-0.07,-0.21,2.6,4.3,7.5,-3.4,12.1,21.7,101.13,36.89,0,1,0,0,1,NONE,45,281
2026-05-27T23:42:42.022,1254985,0.93,-0.05,-0.22,2.5,6.6,7.4,-2.7,11.3,23.7,101.132,36.88,0,1,0,0,1,NONE,49,280
2026-05-27T23:42:42.071,1255037,0.94,-0.02,-0.27,8.1,13.0,9.4,-3.2,11.2,23.1,101.131,36.88,0,0,0,0,0,NONE,49,300
2026-05-27T23:42:42.119,1255083,0.92,-0.05,-0.24,12.4,20.1,9.4,-4.3,11.6,23.1,101.134,36.88,0,0,0,0,0,NONE,48,279
2026-05-27T23:42:42.167,1255135,0.92,-0.06,-0.26,7.1,30.8,9.9,-4.8,11.4,22.5,101.13,36.89,0,0,0,0,0,NONE,38,237
2026-05-27T23:42:42.215,1255183,0.98,-0.06,-0.26,3.1,34.7,10.6,-6.1,11.0,24.0,101.135,36.88,0,0,0,0,0,NONE,39,284
2026-05-27T23:42:42.264,1255235,0.8,-0.06,-0.4,2.4,35.6,13.0,-7.0,10.7,22.7,101.131,36.88,0,0,0,0,0,NONE,32,181
2026-05-27T23:42:42.313,1255287,0.74,-0.17,-0.44,-27.3,23.4,7.2,-7.1,10.4,23.5,101.137,36.88,0,0,0,0,0,NONE,37,249
2026-05-27T23:42:42.368,1255335,0.74,-0.0,-0.43,-50.8,74.6,12.7,-8.8,12.0,24.3,101.133,36.88,0,0,0,0,0,NONE,36,148
2026-05-27T23:42:42.407,1255383,0.66,0.01,-0.31,-42.1,71.8,7.9,-10.3,13.8,26.5,101.133,36.88,0,0,0,0,0,NONE,38,187
2026-05-27T23:42:42.473,1255435,0.8,0.04,-0.48,-21.5,80.4,17.3,-13.4,14.9,27.5,101.13,36.87,0,0,0,0,0,NONE,58,332
2026-05-27T23:42:42.523,1255485,0.84,0.01,-0.45,-17.0,53.5,0.2,-15.2,14.8,27.4,101.13,36.88,0,0,0,0,0,NONE,116,505
2026-05-27T23:42:42.571,1255534,1.17,-0.15,-0.57,-4.6,73.7,-15.4,-17.1,15.9,28.0,101.135,36.88,0,0,0,0,0,NONE,71,469
2026-05-27T23:42:42.619,1255585,0.77,-0.03,-0.58,21.7,92.8,-3.1,-20.0,15.8,28.4,101.134,36.88,0,0,0,0,0,NONE,33,162
2026-05-27T23:42:42.667,1255637,1.21,-0.09,-0.83,33.1,7.2,5.3,-22.5,15.0,27.1,101.135,36.89,0,0,0,0,0,NONE,30,154
2026-05-27T23:42:42.715,1255683,0.37,-0.05,-0.51,30.3,38.5,3.7,-23.1,15.1,27.1,101.135,36.88,0,0,0,0,0,NONE,45,235
2026-05-27T23:42:42.775,1255735,0.85,-0.25,-0.82,16.4,59.9,7.2,-24.3,14.4,26.7,101.135,36.89,0,0,0,0,0,NONE,45,268
2026-05-27T23:42:42.807,1255783,0.61,-0.06,-0.64,-5.1,56.8,9.1,-26.5,14.5,25.9,101.136,36.88,0,0,0,0,0,NONE,108,468
2026-05-27T23:42:42.871,1255835,0.92,0.14,-1.06,37.8,47.1,10.8,-27.9,14.4,25.8,101.137,36.89,0,0,0,0,0,NONE,295,1267
2026-05-27T23:42:42.923,1255887,0.81,-0.14,-0.86,-16.3,-32.0,-12.3,-28.9,14.3,26.4,101.135,36.88,0,0,0,0,0,NONE,65,298
2026-05-27T23:42:42.976,1255935,0.2,0.1,-0.81,-6.5,23.7,-4.3,-27.8,14.7,26.3,101.135,36.88,0,0,0,0,0,NONE,81,148
2026-05-27T23:42:43.016,1255983,0.62,-0.19,-0.75,-2.4,18.4,-14.0,-28.4,14.0,27.3,101.136,36.88,0,0,0,0,0,NONE,19,115
2026-05-27T23:42:43.078,1256035,0.45,-0.14,-0.81,-1.3,32.8,-0.7,-28.3,14.4,26.3,101.139,36.89,0,0,0,0,0,NONE,34,144
2026-05-27T23:42:43.110,1256085,0.61,0.12,-0.85,2.1,8.7,-0.3,-28.6,15.0,26.5,101.136,36.88,0,0,0,0,0,NONE,55,161
2026-05-27T23:42:43.167,1256134,0.7,-0.07,-0.89,-5.4,-45.6,-8.1,-28.8,15.2,25.5,101.135,36.88,0,0,0,0,0,NONE,23,130
2026-05-27T23:42:43.224,1256185,0.54,-0.24,-0.79,-13.6,-28.8,-9.8,-27.6,15.6,27.4,101.137,36.89,0,0,0,0,0,NONE,30,136
2026-05-27T23:42:43.274,1256237,0.61,-0.07,-0.85,-1.1,-15.9,-7.8,-26.9,15.0,26.6,101.134,36.88,0,0,0,0,0,NONE,35,171
2026-05-27T23:42:43.320,1256283,0.79,-0.08,-1.02,6.3,-14.6,0.7,-26.0,15.3,27.7,101.137,36.89,0,0,0,0,0,NONE,488,1771
2026-05-27T23:42:43.370,1256335,0.89,-0.15,-1.1,5.7,-31.6,-4.4,-25.0,15.5,27.6,101.134,36.88,0,0,0,0,0,NONE,361,1471
2026-05-27T23:42:43.414,1256383,0.81,-0.08,-0.82,4.2,-52.0,-1.1,-24.3,15.7,27.4,101.136,36.88,0,0,0,0,0,NONE,276,1256
2026-05-27T23:42:43.470,1256435,0.75,-0.11,-0.61,6.7,-52.4,7.6,-22.6,15.5,28.8,101.139,36.89,0,0,0,0,0,NONE,77,382
2026-05-27T23:42:43.510,1256487,0.81,-0.13,-0.58,3.0,-55.5,4.0,-20.9,14.6,28.4,101.134,36.88,0,0,0,0,0,NONE,20,102
2026-05-27T23:42:43.574,1256535,0.91,-0.16,-0.73,-9.8,-71.0,-0.2,-19.5,15.3,27.7,101.134,36.89,0,0,0,0,0,NONE,40,152
2026-05-27T23:42:43.622,1256583,0.77,-0.13,-0.53,-14.0,-118.8,-2.3,-16.8,15.0,28.1,101.134,36.88,0,0,0,0,0,NONE,75,532
2026-05-27T23:42:43.674,1256635,0.71,-0.09,-0.4,-4.2,-74.7,0.0,-13.6,15.8,27.6,101.136,36.88,0,0,0,0,0,NONE,110,746
2026-05-27T23:42:43.723,1256685,0.88,-0.21,-0.31,-5.3,-53.2,-5.4,-11.4,15.9,26.9,101.138,36.88,0,0,0,0,0,NONE,60,367
2026-05-27T23:42:43.771,1256733,0.85,-0.15,-0.24,-8.9,-34.2,-8.0,-9.7,16.5,26.2,101.139,36.88,0,0,0,0,0,NONE,452,2306
2026-05-27T23:42:43.816,1256785,1.02,-0.17,-0.33,-8.6,-53.2,-4.8,-8.3,16.2,26.3,101.137,36.88,0,0,0,0,0,NONE,125,661
2026-05-27T23:42:43.874,1256837,0.87,-0.15,-0.11,-4.8,-49.7,-3.2,-6.7,17.1,25.8,101.136,36.89,0,0,0,0,0,NONE,46,227
2026-05-27T23:42:43.922,1256883,0.93,-0.18,-0.13,-4.5,-31.2,-5.7,-5.2,17.2,25.4,101.139,36.89,0,0,0,0,0,NONE,44,230
2026-05-27T23:42:43.974,1256935,0.91,-0.21,0.01,-1.2,-23.7,-8.5,-4.3,17.6,24.6,101.137,36.88,0,0,0,0,0,NONE,49,254
2026-05-27T23:42:44.009,1256983,0.99,-0.2,-0.05,-3.0,-16.2,-5.6,-3.4,18.1,24.9,101.135,36.88,0,0,0,0,0,NONE,42,225
2026-05-27T23:42:44.070,1257035,0.98,-0.29,-0.11,-2.2,-11.0,-2.2,-2.6,18.0,23.8,101.132,36.88,0,0,0,0,0,NONE,31,146
2026-05-27T23:42:44.118,1257087,0.91,-0.21,0.03,-12.1,-25.8,-5.3,-2.1,18.0,24.8,101.139,36.88,0,0,0,0,0,NONE,33,150
2026-05-27T23:42:44.168,1257135,0.94,-0.22,0.04,1.5,-10.9,-0.5,-1.2,18.7,24.3,101.133,36.88,0,0,0,0,0,NONE,33,173
2026-05-27T23:42:44.214,1257183,0.95,-0.26,-0.0,0.9,-11.9,1.6,-0.9,18.5,22.7,101.136,36.89,0,0,0,0,0,NONE,44,225
2026-05-27T23:42:44.274,1257235,0.93,-0.25,0.04,-9.7,-7.6,-0.5,-0.7,18.7,24.2,101.135,36.88,0,0,0,0,0,NONE,30,117
2026-05-27T23:42:44.313,1257283,0.97,-0.21,0.01,2.9,-0.7,2.4,0.4,19.3,23.3,101.137,36.89,0,0,0,0,0,NONE,38,174
2026-05-27T23:42:44.374,1257335,0.92,-0.24,0.04,-3.1,-10.7,0.3,0.2,19.1,23.9,101.138,36.88,0,0,0,0,0,NONE,29,151
2026-05-27T23:42:44.424,1257385,0.92,-0.18,0.13,6.5,16.3,-1.2,1.0,18.8,22.7,101.138,36.88,0,0,0,0,0,NONE,32,187
2026-05-27T23:42:44.472,1257433,0.96,-0.19,0.01,6.6,28.4,-0.8,-0.0,19.3,23.1,101.134,36.87,0,0,0,0,0,NONE,21,114
2026-05-27T23:42:44.518,1257485,0.94,-0.24,0.0,4.6,22.7,-0.6,-0.3,20.0,23.6,101.135,36.88,0,0,0,0,0,NONE,23,127
2026-05-27T23:42:44.569,1257537,0.94,-0.27,-0.03,9.3,23.6,0.1,-1.5,19.4,24.5,101.139,36.89,0,0,0,0,0,NONE,26,118
2026-05-27T23:42:44.614,1257583,0.95,-0.28,-0.04,5.9,24.5,-0.1,-1.6,19.5,23.6,101.134,36.89,0,0,0,0,0,NONE,17,108
2026-05-27T23:42:44.662,1257635,0.92,-0.22,-0.02,4.3,29.1,-0.7,-2.5,19.6,25.0,101.134,36.89,0,0,0,0,0,NONE,39,194
2026-05-27T23:42:44.714,1257683,1.0,-0.19,-0.08,6.7,23.6,-2.1,-2.9,19.6,24.7,101.138,36.88,0,0,0,0,0,NONE,35,189
2026-05-27T23:42:44.774,1257735,0.89,-0.26,-0.1,31.6,20.5,-1.3,-3.3,18.8,24.7,101.136,36.88,0,0,0,0,0,NONE,55,268
2026-05-27T23:42:44.824,1257787,0.92,-0.25,-0.19,17.1,35.8,5.6,-4.1,18.8,24.6,101.139,36.88,0,0,0,0,0,NONE,29,158
2026-05-27T23:42:44.869,1257835,0.93,-0.24,-0.22,6.8,41.1,8.2,-5.2,18.0,25.7,101.138,36.88,0,0,0,0,0,NONE,35,163
2026-05-27T23:42:44.920,1257883,0.88,-0.28,-0.15,10.1,53.6,11.9,-6.4,17.8,26.4,101.138,36.88,0,0,0,0,0,NONE,24,147
2026-05-27T23:42:44.970,1257935,0.95,-0.19,-0.2,13.1,65.4,16.3,-8.1,17.8,25.3,101.136,36.88,0,0,0,0,0,NONE,38,203
2026-05-27T23:42:45.018,1257985,0.89,-0.17,-0.28,16.1,72.1,12.4,-9.8,17.5,27.1,101.136,36.88,0,0,0,0,0,NONE,30,155
2026-05-27T23:42:45.075,1258033,0.85,-0.18,-0.33,27.3,76.4,12.6,-12.5,16.6,27.4,101.137,36.88,0,0,0,0,0,NONE,45,250
2026-05-27T23:42:45.118,1258085,0.86,-0.2,-0.49,27.5,68.1,17.3,-14.6,15.7,27.2,101.138,36.88,0,0,0,0,0,NONE,72,348
2026-05-27T23:42:45.175,1258137,0.88,-0.31,-0.55,8.9,43.0,26.9,-16.3,15.9,27.6,101.14,36.88,0,0,0,0,0,NONE,75,319
2026-05-27T23:42:45.209,1258183,0.78,-0.14,-0.36,21.4,84.4,40.5,-18.4,15.5,27.8,101.138,36.89,0,0,0,0,0,NONE,75,427
2026-05-27T23:42:45.271,1258235,0.88,-0.16,-0.71,41.6,109.3,47.1,-22.4,14.5,27.7,101.135,36.88,0,0,0,0,0,NONE,98,420
2026-05-27T23:42:45.321,1258283,0.91,-0.01,-0.9,9.7,79.2,32.4,-25.0,14.4,27.2,101.136,36.88,0,0,0,0,0,NONE,78,533
2026-05-27T23:42:45.368,1258335,0.8,-0.03,-0.87,18.6,52.2,21.4,-27.2,14.7,27.0,101.135,36.89,0,0,0,0,0,NONE,62,395
2026-05-27T23:42:45.422,1258387,0.63,0.19,-0.98,15.7,57.1,9.9,-28.2,14.0,25.6,101.14,36.88,0,0,0,0,0,NONE,121,646
2026-05-27T23:42:45.463,1258435,0.58,0.1,-0.93,11.8,42.5,0.0,-30.0,14.2,25.9,101.139,36.89,0,0,0,0,0,NONE,71,353
2026-05-27T23:42:45.516,1258483,0.62,0.11,-0.97,11.5,30.5,4.2,-31.2,14.2,25.7,101.14,36.89,0,0,0,0,0,NONE,61,316
2026-05-27T23:42:45.559,1258535,0.67,0.08,-1.01,10.1,-2.4,3.1,-30.7,14.7,25.2,101.137,36.88,0,0,0,0,0,NONE,49,320
2026-05-27T23:42:45.624,1258585,0.62,0.09,-0.97,4.5,-5.8,-0.1,-31.1,14.1,25.2,101.133,36.88,0,0,0,0,0,NONE,75,430
2026-05-27T23:42:45.671,1258633,0.72,0.05,-0.98,-1.9,-24.2,-0.7,-30.6,14.1,25.9,101.137,36.89,0,0,0,0,0,NONE,52,328
2026-05-27T23:42:45.722,1258685,0.71,0.12,-1.02,9.8,-50.7,8.1,-29.3,13.6,25.4,101.135,36.89,0,0,0,0,0,NONE,54,345
2026-05-27T23:42:45.767,1258737,0.69,0.1,-0.81,5.0,-53.9,3.4,-28.4,14.3,27.1,101.135,36.88,0,0,0,0,0,NONE,107,641
2026-05-27T23:42:45.815,1258783,0.71,0.19,-0.74,7.4,-46.6,-0.4,-27.3,13.6,27.6,101.138,36.88,0,0,0,0,0,NONE,70,473
2026-05-27T23:42:45.865,1258835,0.7,0.08,-0.73,0.9,-48.8,-6.7,-25.3,12.9,26.8,101.133,36.89,0,0,0,0,0,NONE,63,373
2026-05-27T23:42:45.914,1258883,0.65,0.04,-0.61,1.4,-52.3,-7.9,-23.4,12.7,28.2,101.133,36.89,0,0,0,0,0,NONE,42,228
2026-05-27T23:42:45.960,1258935,0.76,0.3,-0.44,12.8,-30.5,-19.5,-22.0,13.1,26.5,101.133,36.89,0,0,0,0,0,NONE,53,248
2026-05-27T23:42:46.023,1258985,0.61,-0.06,-0.53,-13.0,-38.1,-18.1,-20.4,13.1,26.9,101.134,36.89,0,0,0,0,0,NONE,79,525
2026-05-27T23:42:46.071,1259033,0.72,0.0,-0.42,-11.9,-56.9,-17.0,-18.2,12.9,26.0,101.136,36.89,0,0,0,0,0,NONE,149,956
2026-05-27T23:42:46.123,1259085,0.7,-0.15,-0.5,-25.9,-39.4,-7.8,-16.5,14.0,28.1,101.135,36.88,0,0,0,0,0,NONE,336,2126
2026-05-27T23:42:46.171,1259137,0.95,-0.03,-0.49,-12.0,-74.6,-3.5,-14.7,14.0,27.2,101.132,36.88,0,0,0,0,0,NONE,597,3579
2026-05-27T23:42:46.218,1259183,0.69,-0.0,-0.29,4.5,-63.2,-2.8,-11.5,14.4,28.1,101.132,36.89,0,0,0,0,0,NONE,535,2572
2026-05-27T23:42:46.265,1259237,0.68,-0.09,-0.3,5.7,-50.5,-1.0,-9.7,13.8,27.0,101.134,36.88,0,0,0,0,0,NONE,183,895
2026-05-27T23:42:46.318,1259283,0.91,-0.12,-0.39,-0.2,-47.2,-11.5,-7.8,13.3,24.6,101.13,36.89,0,0,0,0,0,NONE,98,445
2026-05-27T23:42:46.372,1259335,0.88,-0.1,-0.37,-6.0,-30.5,-6.8,-6.8,14.2,26.4,101.13,36.88,0,0,0,0,0,NONE,125,656
2026-05-27T23:42:46.425,1259387,0.87,-0.05,-0.25,4.3,-17.5,-13.7,-5.4,13.8,25.5,101.131,36.88,0,0,0,0,0,NONE,167,826
2026-05-27T23:42:46.470,1259435,0.91,-0.06,-0.28,16.5,-14.6,-13.6,-5.0,13.6,24.6,101.133,36.89,0,0,0,0,0,NONE,83,453
2026-05-27T23:42:46.520,1259483,0.88,-0.13,-0.27,10.9,-12.8,-10.3,-3.8,14.3,24.6,101.132,36.89,0,0,0,0,0,NONE,77,391
2026-05-27T23:42:46.566,1259535,0.9,-0.25,-0.33,10.7,-0.8,-2.6,-3.0,13.2,24.9,101.132,36.89,0,1,0,0,1,NONE,46,257
2026-05-27T23:42:46.616,1259583,1.0,-0.12,-0.23,-10.7,-11.0,-2.1,-3.4,13.8,25.0,101.131,36.88,0,1,0,0,1,NONE,51,243
2026-05-27T23:42:46.662,1259635,0.92,-0.12,-0.14,0.5,-9.3,-3.8,-2.1,14.5,25.1,101.133,36.89,0,1,0,0,1,NONE,61,294
2026-05-27T23:42:46.710,1259685,0.92,-0.12,-0.17,0.4,-0.2,-6.8,-2.5,14.3,24.4,101.135,36.89,0,1,0,0,1,NONE,75,333
2026-05-27T23:42:46.758,1259733,0.97,-0.19,-0.22,-4.1,6.7,-2.3,-2.0,14.6,24.0,101.127,36.89,0,0,0,0,0,NONE,72,317
2026-05-27T23:42:46.822,1259785,0.94,-0.15,-0.2,-4.7,8.5,2.5,-2.1,14.7,24.3,101.131,36.89,0,0,0,0,0,NONE,89,581
2026-05-27T23:42:46.870,1259837,0.97,-0.15,-0.16,-2.9,6.1,3.2,-2.0,15.1,24.7,101.133,36.88,0,1,0,0,1,NONE,69,413
2026-05-27T23:42:46.921,1259883,0.95,-0.13,-0.16,1.3,4.9,2.7,-2.4,14.9,24.8,101.136,36.89,0,1,0,0,1,NONE,168,1011
2026-05-27T23:42:46.975,1259937,0.96,-0.16,-0.19,2.1,7.6,1.9,-2.6,15.4,25.0,101.134,36.88,0,0,0,0,0,NONE,171,864
2026-05-27T23:42:47.013,1259983,0.95,-0.16,-0.18,-2.1,7.9,1.5,-2.4,16.0,24.4,101.132,36.88,0,0,0,0,0,NONE,156,912
2026-05-27T23:42:47.061,1260035,0.96,-0.14,-0.2,-2.3,8.7,2.1,-2.4,15.9,25.2,101.132,36.89,0,0,0,0,0,NONE,214,1275
2026-05-27T23:42:47.109,1260083,0.95,-0.16,-0.17,0.7,8.7,3.1,-2.9,15.5,25.5,101.135,36.88,0,0,0,0,0,NONE,88,664
2026-05-27T23:42:47.174,1260135,0.96,-0.15,-0.2,3.7,7.7,4.7,-2.6,15.8,24.9,101.133,36.89,0,0,0,0,0,NONE,41,225
2026-05-27T23:42:47.224,1260187,0.95,-0.16,-0.23,3.7,8.2,4.3,-3.2,15.7,23.9,101.132,36.89,0,0,0,0,0,NONE,53,279
2026-05-27T23:42:47.269,1260235,0.95,-0.15,-0.24,2.3,7.8,4.6,-3.1,15.2,25.3,101.129,36.89,0,0,0,0,0,NONE,47,313
2026-05-27T23:42:47.317,1260283,0.93,-0.14,-0.18,5.0,10.1,5.2,-4.0,15.8,24.5,101.134,36.89,0,0,0,0,0,NONE,36,198
2026-05-27T23:42:47.366,1260335,0.96,-0.13,-0.22,6.3,11.5,4.4,-4.0,15.2,25.8,101.132,36.89,0,0,0,0,0,NONE,40,242
2026-05-27T23:42:47.416,1260385,0.92,-0.17,-0.23,4.8,9.8,4.9,-4.4,15.6,24.8,101.13,36.89,0,0,0,0,0,NONE,24,130
2026-05-27T23:42:47.462,1260433,0.95,-0.11,-0.29,11.2,9.6,6.0,-4.7,15.3,24.7,101.131,36.89,0,0,0,0,0,NONE,37,170
2026-05-27T23:42:47.509,1260485,0.86,-0.09,-0.28,13.0,17.4,5.9,-4.7,15.2,25.5,101.133,36.89,0,0,0,0,0,NONE,47,214
2026-05-27T23:42:47.575,1260537,0.88,-0.1,-0.35,1.5,25.5,1.9,-5.7,15.0,25.1,101.132,36.88,0,0,0,0,0,NONE,41,310
2026-05-27T23:42:47.621,1260583,0.94,-0.08,-0.33,11.0,32.9,-1.2,-5.6,14.7,26.6,101.135,36.89,0,0,0,0,0,NONE,305,1405
2026-05-27T23:42:47.669,1260635,0.75,-0.18,-0.36,-0.7,34.7,2.8,-6.4,15.5,27.3,101.133,36.88,0,0,0,0,0,NONE,143,1054
2026-05-27T23:42:47.717,1260683,0.81,-0.0,-0.3,11.5,30.5,9.6,-7.3,14.8,25.5,101.131,36.88,0,0,0,0,0,NONE,64,274
2026-05-27T23:42:47.769,1260735,0.56,-0.08,-0.24,11.5,46.1,-4.5,-8.5,14.6,27.2,101.132,36.88,0,0,0,0,0,NONE,66,182
2026-05-27T23:42:47.818,1260786,0.73,-0.19,-0.49,-18.1,59.3,4.6,-9.5,14.7,26.8,101.135,36.89,0,0,0,0,0,NONE,77,482
2026-05-27T23:42:47.873,1260835,0.79,0.08,-0.42,12.7,57.1,3.5,-11.0,15.4,27.1,101.134,36.89,0,0,0,0,0,NONE,183,1003
2026-05-27T23:42:47.909,1260883,0.83,-0.09,-0.46,6.7,46.6,12.3,-12.7,15.1,27.3,101.133,36.89,0,0,0,0,0,NONE,240,1170
2026-05-27T23:42:47.973,1260935,0.8,-0.04,-0.46,24.8,55.6,8.1,-16.3,14.8,26.9,101.135,36.89,0,0,0,0,0,NONE,128,723
2026-05-27T23:42:48.021,1260985,0.56,-0.13,-0.44,2.1,49.9,6.5,-17.8,15.2,28.9,101.137,36.89,0,0,0,0,0,NONE,103,560
2026-05-27T23:42:48.069,1261033,0.97,-0.08,-0.68,16.9,58.8,3.2,-19.3,14.7,27.7,101.134,36.88,0,0,0,0,0,NONE,99,724
2026-05-27T23:42:48.117,1261085,0.79,-0.21,-0.52,10.1,61.5,3.8,-21.9,14.5,27.9,101.138,36.89,0,0,0,0,0,NONE,167,881
2026-05-27T23:42:48.175,1261137,0.78,-0.15,-0.72,-17.5,47.8,-9.1,-23.2,15.0,28.2,101.136,36.89,0,0,0,0,0,NONE,157,990
2026-05-27T23:42:48.214,1261183,0.77,-0.12,-0.73,-45.3,47.4,-4.5,-24.0,16.1,27.3,101.136,36.89,0,0,0,0,0,NONE,168,942
2026-05-27T23:42:48.262,1261235,0.8,-0.21,-1.08,-6.7,14.4,-6.7,-24.7,17.4,29.6,101.133,36.89,0,0,0,0,0,NONE,99,575
2026-05-27T23:42:48.321,1261283,0.7,-0.11,-0.79,9.0,-3.5,6.5,-24.3,17.2,27.3,101.137,36.89,0,0,0,0,0,NONE,149,986
2026-05-27T23:42:48.373,1261335,0.66,-0.19,-0.89,0.7,16.2,6.7,-24.4,17.6,28.2,101.134,36.89,0,0,0,0,0,NONE,155,884
2026-05-27T23:42:48.422,1261387,0.61,-0.1,-0.95,17.1,18.5,4.0,-25.2,17.2,28.5,101.135,36.89,0,0,0,0,0,NONE,204,1137
2026-05-27T23:42:48.471,1261435,0.66,-0.19,-0.88,17.2,36.4,6.4,-26.2,17.3,28.0,101.136,36.89,0,0,0,0,0,NONE,189,1215
2026-05-27T23:42:48.521,1261486,0.7,-0.09,-1.01,8.0,-5.3,2.9,-26.7,16.9,27.9,101.135,36.89,0,0,0,0,0,NONE,227,1589
2026-05-27T23:42:48.569,1261533,0.61,-0.16,-0.8,6.0,-9.3,-6.5,-26.7,16.7,27.5,101.137,36.89,0,0,0,0,0,NONE,397,2390
2026-05-27T23:42:48.613,1261587,0.81,-0.08,-0.9,-6.9,-69.4,-11.8,-24.6,17.0,28.3,101.138,36.89,0,0,0,0,0,NONE,447,2285
2026-05-27T23:42:48.665,1261633,0.77,-0.19,-0.76,11.5,-112.2,-7.4,-21.8,16.7,28.2,101.138,36.89,0,0,0,0,0,NONE,370,2671
2026-05-27T23:42:48.714,1261683,0.88,-0.16,-0.7,0.1,-106.6,-8.7,-17.9,16.9,28.0,101.138,36.89,0,0,0,0,0,NONE,182,1220
2026-05-27T23:42:48.774,1261733,0.92,-0.24,-0.58,-5.3,-62.5,-2.6,-15.3,17.3,28.2,101.137,36.89,0,0,0,0,0,NONE,165,1181
2026-05-27T23:42:48.822,1261785,1.04,-0.2,-0.61,-7.4,-72.3,5.6,-13.4,16.9,28.5,101.134,36.89,0,0,0,0,0,NONE,1798,8453
2026-05-27T23:42:48.872,1261833,0.75,-0.19,-0.39,-5.1,-69.0,-1.3,-10.9,17.0,27.4,101.142,36.89,0,0,0,0,0,NONE,270,758
2026-05-27T23:42:48.922,1261885,0.92,-0.21,-0.39,-2.8,-61.5,-1.3,-8.8,17.6,26.4,101.139,36.9,0,0,0,0,0,NONE,759,3620
2026-05-27T23:42:48.966,1261935,0.93,-0.23,-0.26,-4.5,-54.3,-2.3,-7.6,17.5,26.1,101.141,36.89,0,0,0,0,0,NONE,666,3015
2026-05-27T23:42:49.014,1261983,0.97,-0.2,-0.21,-7.9,-43.3,-3.6,-6.0,17.3,24.6,101.14,36.89,0,0,0,0,0,NONE,182,1109
2026-05-27T23:42:49.072,1262035,0.93,-0.17,-0.13,-10.7,-44.9,-3.5,-4.4,18.6,25.3,101.138,36.89,0,0,0,0,0,NONE,66,366
2026-05-27T23:42:49.121,1262083,0.97,-0.23,-0.13,-5.7,-64.5,-4.6,-3.2,18.8,25.8,101.139,36.89,0,0,0,0,0,NONE,93,398
2026-05-27T23:42:49.173,1262135,0.88,-0.19,0.11,2.0,-40.2,-2.7,-1.3,18.9,24.2,101.141,36.89,0,0,0,0,0,NONE,635,2139
2026-05-27T23:42:49.222,1262185,0.9,-0.19,0.08,-3.1,-25.6,1.7,-0.8,18.7,24.5,101.14,36.89,0,0,0,0,0,NONE,253,1344
2026-05-27T23:42:49.272,1262233,0.85,-0.02,0.08,21.1,-2.6,12.7,0.1,18.8,22.6,101.135,36.88,0,0,0,0,0,NONE,105,277
2026-05-27T23:42:49.318,1262285,1.09,-0.23,0.04,8.9,-20.1,0.7,0.4,18.0,22.4,101.138,36.88,0,0,0,0,0,NONE,123,295
2026-05-27T23:42:49.372,1262337,0.89,-0.13,0.14,-5.6,-26.5,0.5,1.5,18.6,21.2,101.138,36.89,0,0,0,0,0,NONE,98,304
2026-05-27T23:42:49.416,1262383,0.93,-0.33,0.17,6.0,-11.5,-7.7,1.9,17.9,21.4,101.134,36.89,0,0,0,0,0,NONE,102,346
2026-05-27T23:42:49.462,1262435,0.97,-0.3,0.11,-6.0,-3.5,-1.3,2.3,18.2,21.5,101.135,36.89,0,1,0,0,1,NONE,145,302
2026-05-27T23:42:49.510,1262483,0.87,-0.23,0.14,8.6,1.3,0.4,2.5,18.8,21.2,101.136,36.89,0,1,0,0,1,NONE,132,510
2026-05-27T23:42:49.574,1262535,0.95,-0.21,0.04,9.9,17.4,4.3,2.3,18.3,22.3,101.14,36.89,0,1,0,0,1,NONE,148,476
2026-05-27T23:42:49.621,1262585,0.98,-0.2,0.11,3.4,7.9,4.0,2.4,18.5,22.4,101.139,36.89,0,1,0,0,1,NONE,99,325
2026-05-27T23:42:49.673,1262633,0.95,-0.16,0.02,8.4,17.9,5.1,2.0,18.2,21.9,101.137,36.89,0,1,0,0,1,NONE,86,361
2026-05-27T23:42:49.721,1262685,0.95,-0.22,0.07,1.6,13.6,2.1,2.4,17.9,22.4,101.139,36.89,0,1,0,0,1,NONE,102,657
2026-05-27T23:42:49.771,1262737,0.94,-0.24,0.08,6.8,16.4,1.9,1.2,18.0,22.4,101.139,36.89,0,1,0,0,1,NONE,104,491
2026-05-27T23:42:49.819,1262783,0.93,-0.24,-0.01,9.6,25.6,3.8,1.4,18.1,23.6,101.136,36.89,0,1,0,0,1,NONE,59,231
2026-05-27T23:42:49.872,1262837,0.98,-0.22,0.03,-1.2,21.0,5.1,0.7,17.9,22.9,101.134,36.89,0,1,0,0,1,NONE,98,528
2026-05-27T23:42:49.914,1262883,0.98,-0.18,0.03,0.7,19.8,5.6,-0.0,17.8,22.1,101.138,36.89,0,1,0,0,1,NONE,150,838
2026-05-27T23:42:49.961,1262936,0.95,-0.18,-0.02,0.9,20.4,6.7,-0.9,18.6,23.2,101.135,36.89,0,1,0,0,1,NONE,94,566
2026-05-27T23:42:50.024,1262986,0.93,-0.22,-0.05,3.5,26.7,4.0,-1.0,17.6,24.1,101.14,36.89,0,1,0,0,1,NONE,76,375
2026-05-27T23:42:50.069,1263035,0.95,-0.23,-0.08,9.5,28.3,3.0,-1.3,17.9,23.1,101.139,36.89,0,1,0,0,1,NONE,120,622
2026-05-27T23:42:50.119,1263083,0.94,-0.17,-0.13,6.4,33.0,3.6,-2.5,17.8,24.2,101.141,36.89,0,1,0,0,1,NONE,164,826
2026-05-27T23:42:50.173,1263135,0.97,-0.19,-0.12,11.2,29.9,3.3,-3.4,17.9,24.6,101.139,36.89,0,0,0,0,0,NONE,281,1128
2026-05-27T23:42:50.212,1263185,0.92,-0.19,-0.15,8.5,38.8,3.5,-4.6,17.5,25.2,101.141,36.89,0,0,0,0,0,NONE,94,528
2026-05-27T23:42:50.272,1263233,0.95,-0.19,-0.2,11.2,38.0,2.7,-5.6,17.2,25.5,101.136,36.89,0,0,0,0,0,NONE,186,828
2026-05-27T23:42:50.323,1263285,0.93,-0.21,-0.19,3.9,39.2,2.0,-6.3,17.5,25.3,101.141,36.89,0,0,0,0,0,NONE,91,506
2026-05-27T23:42:50.371,1263337,0.89,-0.17,-0.25,8.2,47.2,2.4,-7.0,17.1,25.7,101.139,36.9,0,0,0,0,0,NONE,136,578
2026-05-27T23:42:50.418,1263383,0.91,-0.23,-0.32,14.9,46.1,8.7,-8.3,16.8,26.7,101.137,36.89,0,0,0,0,0,NONE,60,329
2026-05-27T23:42:50.471,1263435,0.91,-0.17,-0.33,12.8,54.5,11.4,-9.7,16.9,26.7,101.142,36.89,0,0,0,0,0,NONE,55,268
2026-05-27T23:42:50.522,1263483,0.87,-0.1,-0.32,7.9,58.3,8.8,-10.8,16.4,26.6,101.142,36.89,0,0,0,0,0,NONE,71,359
2026-05-27T23:42:50.565,1263535,0.86,-0.14,-0.39,16.8,70.1,7.9,-13.5,16.5,27.7,101.14,36.89,0,0,0,0,0,NONE,73,438
2026-05-27T23:42:50.622,1263587,0.85,-0.15,-0.48,20.4,81.2,12.8,-15.2,16.3,28.1,101.138,36.9,0,0,0,0,0,NONE,99,573
2026-05-27T23:42:50.669,1263635,0.78,-0.11,-0.53,20.0,85.0,12.8,-17.3,15.4,27.8,101.143,36.89,0,0,0,0,0,NONE,55,331
2026-05-27T23:42:50.719,1263683,0.7,-0.14,-0.61,23.0,99.0,18.3,-20.2,15.3,28.0,101.141,36.89,0,0,0,0,0,NONE,50,247
2026-05-27T23:42:50.766,1263735,0.68,-0.01,-0.8,23.9,101.6,29.5,-22.7,14.9,28.5,101.141,36.89,0,0,0,0,0,NONE,55,328
2026-05-27T23:42:50.814,1263785,0.63,-0.06,-0.81,27.3,84.1,28.5,-26.3,14.0,26.2,101.139,36.89,0,0,0,0,0,NONE,77,496
2026-05-27T23:42:50.863,1263833,0.58,-0.21,-0.96,10.1,96.3,31.5,-27.8,14.1,26.4,101.141,36.9,0,0,0,0,0,NONE,83,478
2026-05-27T23:42:50.922,1263885,0.77,-0.02,-1.28,-5.2,53.6,35.8,-30.9,13.7,25.4,101.139,36.89,0,0,0,0,0,NONE,66,388
2026-05-27T23:42:50.975,1263937,0.53,0.06,-1.06,-0.2,49.7,20.6,-33.1,14.9,24.8,101.138,36.89,0,0,0,0,0,NONE,52,312
2026-05-27T23:42:51.023,1263983,0.45,-0.03,-1.03,8.0,32.0,4.9,-34.6,15.1,24.6,101.136,36.89,0,0,0,0,0,NONE,56,257
2026-05-27T23:42:51.069,1264035,0.41,0.11,-1.03,4.3,20.4,1.7,-35.5,15.2,23.3,101.137,36.89,0,0,0,0,0,NONE,68,366
2026-05-27T23:42:51.122,1264083,0.41,0.06,-1.1,0.1,-2.1,0.3,-35.5,15.1,22.7,101.14,36.89,0,0,0,0,0,NONE,86,431
2026-05-27T23:42:51.169,1264135,0.28,0.04,-0.96,2.0,-0.5,-2.7,-35.8,15.3,23.1,101.137,36.89,0,0,0,0,0,NONE,57,321
2026-05-27T23:42:51.223,1264187,0.4,0.0,-1.0,-4.1,3.0,-0.1,-35.6,15.2,23.4,101.139,36.88,0,0,0,0,0,NONE,100,519
2026-05-27T23:42:51.261,1264235,0.42,0.07,-0.95,-13.7,-4.0,-1.2,-35.3,15.5,23.0,101.138,36.89,0,0,0,0,0,NONE,68,440
2026-05-27T23:42:51.321,1264283,0.46,-0.04,-1.06,3.0,-34.6,10.6,-35.6,16.1,23.8,101.138,36.89,0,0,0,0,0,NONE,62,322
2026-05-27T23:42:51.374,1264335,0.45,0.0,-0.95,3.7,-39.2,11.0,-34.8,16.5,24.2,101.14,36.89,0,0,0,0,0,NONE,63,384
2026-05-27T23:42:51.420,1264385,0.52,0.07,-0.89,0.2,-51.5,5.0,-33.5,16.2,24.7,101.133,36.89,0,0,0,0,0,NONE,42,300
2026-05-27T23:42:51.472,1264434,0.59,0.18,-0.78,4.2,-50.4,0.5,-33.5,16.2,24.7,101.133,36.89,0,0,0,0,0,NONE,51,374
2026-05-27T23:42:51.517,1264485,0.55,-0.02,-0.72,-12.5,-57.1,2.5,-29.9,16.9,27.4,101.139,36.89,0,0,0,0,0,NONE,52,355
2026-05-27T23:42:51.570,1264537,0.66,-0.02,-0.78,-3.3,-54.4,-0.5,-28.2,16.9,27.4,101.136,36.89,0,0,0,0,0,NONE,64,341
2026-05-27T23:42:51.614,1264583,0.76,0.2,-0.64,0.2,-66.0,0.7,-25.7,16.9,28.7,101.138,36.89,0,0,0,0,0,NONE,47,283
2026-05-27T23:42:51.673,1264635,0.73,0.02,-0.61,3.8,-65.1,1.2,-23.9,16.6,29.8,101.138,36.9,0,0,0,0,0,NONE,231,1630
2026-05-27T23:42:51.721,1264683,0.69,-0.07,-0.6,-7.8,-60.4,1.4,-21.4,16.7,29.0,101.134,36.89,0,0,0,0,0,NONE,341,1738
2026-05-27T23:42:51.773,1264735,0.73,0.01,-0.48,-12.3,-59.5,7.6,-19.4,16.5,29.4,101.133,36.89,0,0,0,0,0,NONE,284,1391
2026-05-27T23:42:51.818,1264786,0.71,-0.12,-0.46,17.0,-54.9,2.0,-17.2,16.7,28.6,101.133,36.89,0,0,0,0,0,NONE,63,379
2026-05-27T23:42:51.866,1264835,0.76,-0.07,-0.64,28.4,-30.0,13.2,-15.4,16.0,29.4,101.135,36.89,0,0,0,0,0,NONE,55,252
2026-05-27T23:42:51.915,1264883,0.84,0.16,-0.54,40.3,-40.1,-19.1,-13.9,14.8,27.9,101.134,36.89,0,0,0,0,0,NONE,62,429
2026-05-27T23:42:51.969,1264935,0.69,-0.13,-0.37,11.3,-46.0,-20.8,-11.7,13.8,26.7,101.137,36.89,0,0,0,0,0,NONE,95,471
2026-05-27T23:42:52.015,1264985,0.85,0.0,-0.44,13.4,-38.8,-19.8,-10.4,14.1,26.4,101.131,36.89,0,0,0,0,0,NONE,66,339
2026-05-27T23:42:52.058,1265034,0.86,-0.01,-0.38,22.6,-38.0,-25.7,-8.2,13.6,26.0,101.133,36.89,0,0,0,0,0,NONE,46,330
2026-05-27T23:42:52.123,1265085,0.86,-0.07,-0.33,26.2,-25.6,-18.6,-6.8,13.7,26.2,101.135,36.89,0,0,0,0,0,NONE,52,415
2026-05-27T23:42:52.171,1265137,0.88,-0.1,-0.26,23.7,-16.6,-13.3,-5.8,13.2,24.8,101.136,36.89,0,1,0,0,1,NONE,41,219
2026-05-27T23:42:52.220,1265183,0.94,-0.14,-0.26,7.4,-0.2,-9.2,-5.7,12.2,24.0,101.134,36.89,0,1,0,0,1,NONE,46,240
2026-05-27T23:42:52.271,1265235,0.93,-0.05,-0.32,2.3,-4.5,-5.1,-4.9,12.9,24.1,101.132,36.89,0,1,0,0,1,NONE,40,280
2026-05-27T23:42:52.320,1265283,0.92,-0.07,-0.24,-4.3,0.5,-3.3,-4.3,12.8,23.6,101.132,36.89,0,1,0,0,1,NONE,44,231
2026-05-27T23:42:52.363,1265335,0.95,-0.06,-0.31,-1.4,3.5,-2.9,-4.5,13.1,24.3,101.13,36.9,0,1,0,0,1,NONE,55,325
2026-05-27T23:42:52.416,1265387,0.93,-0.14,-0.23,4.6,-0.9,-1.7,-4.6,13.2,24.1,101.13,36.89,0,1,0,0,1,NONE,35,215
2026-05-27T23:42:52.459,1265435,0.93,-0.15,-0.29,7.1,8.7,1.2,-4.3,13.4,25.1,101.134,36.9,0,1,0,0,1,NONE,25,134
2026-05-27T23:42:52.517,1265483,0.91,-0.17,-0.23,3.8,5.6,-0.5,-4.6,13.4,25.0,101.134,36.89,0,1,0,0,1,NONE,34,176
2026-05-27T23:42:52.572,1265535,0.95,-0.15,-0.27,-3.2,13.2,-0.7,-4.6,13.9,25.0,101.135,36.89,0,0,0,0,0,NONE,39,175
2026-05-27T23:42:52.620,1265585,0.93,-0.18,-0.31,-2.7,15.9,-0.9,-5.1,14.2,25.5,101.132,36.89,0,0,0,0,0,NONE,33,163
2026-05-27T23:42:52.670,1265634,0.92,-0.18,-0.33,-10.2,14.3,-0.3,-5.3,14.4,25.3,101.135,36.89,0,0,0,0,0,NONE,41,199
2026-05-27T23:42:52.724,1265685,0.93,-0.17,-0.34,-13.7,14.1,1.4,-5.3,14.3,26.1,101.135,36.89,0,0,0,0,0,NONE,42,199
2026-05-27T23:42:52.763,1265737,0.86,-0.2,-0.33,-21.4,13.5,2.6,-6.0,15.5,25.5,101.132,36.89,0,0,0,0,0,NONE,35,249
2026-05-27T23:42:52.817,1265783,0.87,-0.18,-0.36,-25.4,20.1,2.0,-6.8,16.4,27.0,101.133,36.89,0,0,0,0,0,NONE,26,140
2026-05-27T23:42:52.874,1265835,0.85,-0.19,-0.39,-24.8,21.9,2.6,-7.1,17.3,29.2,101.134,36.9,0,0,0,0,0,NONE,43,269
2026-05-27T23:42:52.917,1265883,0.9,-0.16,-0.35,-18.2,28.9,2.0,-7.3,18.0,28.0,101.132,36.9,0,0,0,0,0,NONE,73,419
2026-05-27T23:42:52.973,1265935,0.84,-0.12,-0.35,2.3,37.8,2.7,-8.5,18.5,29.9,101.131,36.89,0,0,0,0,0,NONE,52,304
2026-05-27T23:42:53.019,1265987,0.96,-0.1,-0.54,29.1,7.6,-3.7,-9.8,18.2,28.0,101.134,36.89,0,0,0,0,0,NONE,59,413
2026-05-27T23:42:53.074,1266035,0.77,-0.09,-0.36,34.1,16.0,0.2,-10.4,17.8,28.1,101.133,36.89,0,0,0,0,0,NONE,147,709
2026-05-27T23:42:53.118,1266083,0.71,-0.17,-0.39,38.9,43.5,0.7,-10.5,16.7,28.5,101.133,36.89,0,0,0,0,0,NONE,91,560
2026-05-27T23:42:53.169,1266135,0.85,-0.23,-0.56,42.0,74.6,10.6,-12.1,15.2,28.8,101.132,36.89,0,0,0,0,0,NONE,73,526
2026-05-27T23:42:53.218,1266185,0.63,-0.17,-0.4,19.3,43.7,12.3,-14.1,14.5,27.3,101.136,36.9,0,0,0,0,0,NONE,60,328
2026-05-27T23:42:53.266,1266233,0.68,-0.14,-0.41,-10.0,66.6,1.5,-15.9,14.4,27.7,101.137,36.89,0,0,0,0,0,NONE,56,304
2026-05-27T23:42:53.318,1266285,0.71,-0.16,-0.48,-1.8,78.1,11.8,-17.7,15.4,28.1,101.137,36.89,0,0,0,0,0,NONE,57,330
2026-05-27T23:42:53.374,1266337,0.34,0.17,-0.71,14.3,55.3,10.2,-20.1,15.0,27.3,101.135,36.89,0,0,0,0,0,NONE,54,360
2026-05-27T23:42:53.419,1266383,0.96,-0.17,-0.64,20.4,62.1,4.4,-21.8,15.1,27.6,101.134,36.89,0,0,0,0,0,NONE,69,424
2026-05-27T23:42:53.470,1266435,0.57,-0.06,-0.73,-14.8,55.6,5.9,-24.1,14.8,27.4,101.134,36.89,0,0,0,0,0,NONE,63,318
2026-05-27T23:42:53.519,1266483,0.73,0.04,-0.93,29.9,62.0,11.2,-25.5,15.7,27.4,101.139,36.89,0,0,0,0,0,NONE,87,403
2026-05-27T23:42:53.565,1266535,0.67,-0.08,-0.68,20.1,44.5,9.2,-27.3,14.7,25.5,101.133,36.89,0,0,0,0,0,NONE,53,255
2026-05-27T23:42:53.619,1266587,0.53,-0.06,-0.89,6.4,39.9,-1.3,-28.8,14.4,24.6,101.136,36.89,0,0,0,0,0,NONE,36,192
2026-05-27T23:42:53.661,1266635,0.55,0.02,-0.83,11.2,32.5,13.9,-29.4,15.1,24.6,101.135,36.9,0,0,0,0,0,NONE,39,190
2026-05-27T23:42:53.719,1266683,0.53,-0.09,-0.91,36.9,27.0,7.1,-30.6,14.1,25.9,101.134,36.89,0,0,0,0,0,NONE,37,212
2026-05-27T23:42:53.774,1266735,0.55,-0.02,-1.03,-4.3,26.7,4.3,-30.7,13.3,24.8,101.135,36.89,0,0,0,0,0,NONE,34,185
2026-05-27T23:42:53.822,1266785,0.55,0.11,-0.89,1.9,12.0,-0.4,-31.6,13.7,24.6,101.134,36.89,0,0,0,0,0,NONE,74,291
2026-05-27T23:42:53.871,1266833,0.47,-0.06,-0.96,20.8,18.6,2.8,-31.4,13.4,23.7,101.139,36.89,0,0,0,0,0,NONE,45,233
2026-05-27T23:42:53.922,1266885,0.41,-0.05,-0.84,1.7,14.4,1.2,-32.2,14.0,23.5,101.137,36.9,0,0,0,0,0,NONE,108,579
2026-05-27T23:42:53.969,1266937,0.38,0.02,-0.87,2.7,8.4,2.1,-33.2,13.7,23.7,101.131,36.89,0,0,0,0,0,NONE,80,426
2026-05-27T23:42:54.020,1266983,0.31,-0.07,-0.83,-5.2,19.0,2.1,-33.3,13.8,24.7,101.137,36.89,0,0,0,0,0,NONE,112,656
2026-05-27T23:42:54.063,1267035,0.51,0.1,-0.97,-7.8,19.7,-5.2,-32.9,14.1,23.1,101.14,36.9,0,0,0,0,0,NONE,114,636
2026-05-27T23:42:54.111,1267083,0.4,-0.07,-0.96,-16.8,1.6,-5.4,-33.3,14.7,24.1,101.141,36.89,0,0,0,0,0,NONE,114,555
2026-05-27T23:42:54.160,1267135,0.28,-0.05,-0.81,4.8,10.6,-4.3,-32.7,14.2,23.8,101.139,36.9,0,0,0,0,0,NONE,81,397
2026-05-27T23:42:54.224,1267187,0.4,0.0,-0.96,-0.9,-5.0,-6.0,-33.7,15.1,23.5,101.139,36.9,0,0,0,0,0,NONE,115,559
2026-05-27T23:42:54.273,1267235,0.44,-0.08,-0.92,-3.4,-19.7,-4.7,-32.7,14.4,24.2,101.138,36.9,0,0,0,0,0,NONE,69,394
2026-05-27T23:42:54.320,1267283,0.45,-0.1,-0.92,-15.3,-25.4,-4.4,-32.0,14.6,23.4,101.137,36.9,0,0,0,0,0,NONE,70,398
2026-05-27T23:42:54.369,1267335,0.62,-0.05,-1.18,0.1,-49.1,-3.4,-31.5,14.7,25.4,101.139,36.9,0,0,0,0,0,NONE,72,424
2026-05-27T23:42:54.419,1267385,0.73,-0.04,-1.54,-5.6,-47.3,-0.4,-30.4,15.3,25.9,101.138,36.89,0,0,0,0,0,NONE,88,414
2026-05-27T23:42:54.469,1267433,0.85,-0.09,-1.05,-5.2,-113.8,0.1,-28.5,15.3,27.0,101.137,36.89,0,0,0,0,0,NONE,110,291
2026-05-27T23:42:54.518,1267485,0.59,-0.14,-0.47,-9.3,-101.3,8.5,-25.2,15.2,26.4,101.137,36.89,0,0,0,0,0,NONE,44,263
2026-05-27T23:42:54.566,1267537,0.67,-0.14,-0.47,-4.2,-89.7,-1.5,-22.7,15.3,28.3,101.139,36.9,0,0,0,0,0,NONE,45,191
2026-05-27T23:42:54.614,1267583,0.84,-0.19,-0.62,-11.7,-55.7,-8.2,-19.8,15.1,28.1,101.138,36.89,0,0,0,0,0,NONE,62,209
2026-05-27T23:42:54.674,1267635,0.86,-0.16,-0.67,-3.2,-65.7,-5.4,-17.7,16.0,28.0,101.138,36.89,0,0,0,0,0,NONE,58,302
2026-05-27T23:42:54.708,1267683,0.78,-0.14,-0.34,14.8,-39.7,0.4,-15.5,15.7,28.3,101.139,36.9,0,0,0,0,0,NONE,46,272
2026-05-27T23:42:54.770,1267735,0.88,-0.12,-0.4,1.6,-43.5,-0.2,-14.4,15.7,27.6,101.138,36.9,0,0,0,0,0,NONE,32,183
2026-05-27T23:42:54.821,1267787,0.94,-0.11,-0.44,2.1,-46.2,-3.1,-13.2,16.0,26.3,101.138,36.89,0,0,0,0,0,NONE,51,297
2026-05-27T23:42:54.865,1267835,0.91,-0.24,-0.26,-2.9,-37.7,-1.7,-11.3,15.8,27.0,101.142,36.89,0,0,0,0,0,NONE,42,255
2026-05-27T23:42:54.922,1267883,0.94,-0.16,-0.33,-4.0,-44.4,1.5,-9.9,16.1,27.5,101.138,36.9,0,0,0,0,0,NONE,72,304
2026-05-27T23:42:54.968,1267935,0.85,-0.14,-0.17,-0.7,-23.6,4.0,-8.8,15.7,26.3,101.138,36.89,0,0,0,0,0,NONE,93,412
2026-05-27T23:42:55.023,1267985,0.95,-0.16,-0.24,-0.9,-9.5,4.9,-7.5,16.3,26.9,101.141,36.9,0,0,0,0,0,NONE,85,537
2026-05-27T23:42:55.070,1268033,0.91,-0.15,-0.22,-1.0,-4.3,5.1,-7.0,16.9,26.4,101.138,36.89,0,0,0,0,0,NONE,75,406
2026-05-27T23:42:55.121,1268085,0.93,-0.17,-0.22,-3.1,-4.3,2.2,-6.7,16.4,28.1,101.139,36.9,0,0,0,0,0,NONE,47,271
2026-05-27T23:42:55.170,1268137,0.96,-0.17,-0.18,-4.3,0.7,3.8,-7.1,17.3,26.4,101.139,36.9,0,0,0,0,0,NONE,41,217
2026-05-27T23:42:55.216,1268183,0.92,-0.12,-0.22,1.3,10.1,5.6,-7.3,16.9,26.5,101.138,36.9,0,0,0,0,0,NONE,132,808
2026-05-27T23:42:55.262,1268235,0.93,-0.15,-0.21,5.1,14.2,6.6,-7.5,16.8,27.5,101.139,36.9,0,0,0,0,0,NONE,123,716
2026-05-27T23:42:55.314,1268283,0.92,-0.22,-0.23,2.3,23.3,9.6,-7.8,16.7,26.8,101.14,36.89,0,0,0,0,0,NONE,134,709
2026-05-27T23:42:55.374,1268335,0.96,-0.13,-0.31,5.9,23.1,8.0,-8.0,16.6,27.9,101.139,36.89,0,1,0,0,1,NONE,134,867
2026-05-27T23:42:55.424,1268387,0.92,-0.16,-0.25,12.8,19.7,10.9,-9.1,15.9,26.4,101.138,36.9,0,1,0,0,1,NONE,141,733
2026-05-27T23:42:55.470,1268435,0.92,-0.1,-0.31,6.6,24.2,7.1,-10.1,16.2,26.8,101.137,36.89,0,0,0,0,0,NONE,58,328
2026-05-27T23:42:55.525,1268486,0.9,-0.14,-0.31,4.8,31.1,5.6,-10.4,16.2,26.7,101.139,36.9,0,0,0,0,0,NONE,52,257
2026-05-27T23:42:55.570,1268533,0.91,-0.06,-0.37,5.4,34.1,7.6,-11.5,15.8,26.6,101.138,36.89,0,0,0,0,0,NONE,55,308
2026-05-27T23:42:55.614,1268587,0.85,-0.11,-0.39,8.3,47.0,5.5,-13.3,15.9,26.9,101.141,36.9,0,0,0,0,0,NONE,38,248
2026-05-27T23:42:55.666,1268633,0.86,-0.12,-0.39,11.5,51.3,5.1,-14.6,16.1,27.0,101.139,36.9,0,0,0,0,0,NONE,53,283
2026-05-27T23:42:55.715,1268683,0.83,-0.06,-0.46,8.9,59.9,2.6,-15.8,15.4,28.1,101.141,36.9,0,0,0,0,0,NONE,30,189
2026-05-27T23:42:55.763,1268733,0.81,-0.08,-0.5,14.9,68.6,7.7,-17.4,16.1,27.2,101.142,36.9,0,0,0,0,0,NONE,285,1652
2026-05-27T23:42:55.823,1268785,0.78,-0.06,-0.59,14.6,75.8,7.6,-20.1,15.8,27.5,101.137,36.89,0,0,0,0,0,NONE,320,1706
2026-05-27T23:42:55.872,1268833,0.77,-0.12,-0.64,10.4,83.9,9.6,-22.1,15.4,27.2,101.138,36.9,0,0,0,0,0,NONE,131,860
2026-05-27T23:42:55.921,1268885,0.67,-0.06,-0.74,7.2,91.9,16.8,-24.8,15.0,26.9,101.14,36.89,0,0,0,0,0,NONE,272,1590
2026-05-27T23:42:55.968,1268935,0.65,-0.02,-0.84,18.8,69.1,11.0,-27.0,15.2,26.0,101.14,36.89,0,0,0,0,0,NONE,247,1125
2026-05-27T23:42:56.019,1268983,0.6,-0.12,-0.85,11.7,58.0,18.8,-28.8,15.4,27.3,101.142,36.9,0,0,0,0,0,NONE,173,1050
2026-05-27T23:42:56.072,1269035,0.57,-0.03,-0.86,24.2,60.2,27.2,-30.8,15.2,25.7,101.139,36.89,0,0,0,0,0,NONE,260,1469
2026-05-27T23:42:56.115,1269086,0.48,-0.02,-0.91,9.5,94.1,21.8,-32.6,15.4,25.6,101.139,36.89,0,0,0,0,0,NONE,226,1241
2026-05-27T23:42:56.163,1269133,0.57,0.04,-1.12,1.2,65.9,21.9,-34.8,15.4,23.5,101.139,36.9,0,0,0,0,0,NONE,197,1095
2026-05-27T23:42:56.225,1269187,0.4,0.05,-1.05,1.7,50.3,6.7,-36.4,15.4,23.7,101.137,36.89,0,0,0,0,0,NONE,125,849
2026-05-27T23:42:56.261,1269233,0.34,0.03,-1.06,4.0,35.6,4.1,-36.7,15.5,23.3,101.136,36.89,0,0,0,0,0,NONE,77,452
2026-05-27T23:42:56.322,1269283,0.41,0.11,-1.14,3.9,19.2,1.2,-38.0,16.1,23.3,101.14,36.89,0,0,0,0,0,NONE,60,341
2026-05-27T23:42:56.371,1269333,0.39,0.07,-1.14,8.7,-5.7,1.8,-37.7,15.2,22.5,101.14,36.89,0,0,0,0,0,NONE,69,374
2026-05-27T23:42:56.420,1269385,0.42,0.15,-1.19,7.1,-11.8,-1.3,-37.9,15.7,22.5,101.137,36.89,0,0,0,0,0,NONE,49,307
2026-05-27T23:42:56.470,1269433,0.48,0.07,-1.21,5.2,-12.9,-7.6,-37.4,15.7,23.0,101.139,36.9,0,0,0,0,0,NONE,230,1372
2026-05-27T23:42:56.515,1269485,0.57,0.08,-1.17,-5.5,-10.3,-14.6,-36.8,15.8,22.2,101.138,36.89,0,0,0,0,0,NONE,94,476
2026-05-27T23:42:56.563,1269535,0.42,-0.01,-1.04,-11.9,-36.0,5.4,-36.5,15.8,22.2,101.136,36.89,0,0,0,0,0,NONE,91,420
2026-05-27T23:42:56.613,1269583,0.36,0.06,-0.91,-8.3,-60.1,12.2,-35.1,16.0,24.7,101.135,36.89,0,0,0,0,0,NONE,98,557
2026-05-27T23:42:56.673,1269635,0.37,-0.14,-0.89,-1.2,-80.1,19.0,-33.6,16.2,24.8,101.136,36.89,0,0,0,0,0,NONE,62,374
2026-05-27T23:42:56.724,1269686,0.5,-0.06,-0.77,-1.2,-65.5,20.6,-31.5,16.3,26.3,101.137,36.9,0,0,0,0,0,NONE,134,637
2026-05-27T23:42:56.772,1269733,0.61,0.07,-0.68,-10.9,-67.9,16.9,-30.1,16.5,27.2,101.133,36.89,0,0,0,0,0,NONE,373,2153
2026-05-27T23:42:56.821,1269785,0.68,0.09,-0.66,-7.5,-69.3,11.0,-28.0,17.0,27.9,101.138,36.9,0,0,0,0,0,NONE,348,1877
2026-05-27T23:42:56.871,1269833,0.67,0.04,-0.64,-6.4,-66.7,7.9,-26.1,16.9,29.0,101.136,36.89,0,0,0,0,0,NONE,241,1589
2026-05-27T23:42:56.922,1269885,0.65,0.03,-0.6,-6.3,-62.3,1.6,-23.9,17.2,29.2,101.135,36.9,0,0,0,0,0,NONE,313,1417
2026-05-27T23:42:56.965,1269937,0.71,0.06,-0.51,-9.3,-68.1,-1.5,-21.7,17.2,29.2,101.133,36.9,0,0,0,0,0,NONE,191,1180
2026-05-27T23:42:57.014,1269983,0.61,-0.09,-0.48,-16.4,-55.5,-10.1,-19.1,18.0,31.2,101.137,36.89,0,0,0,0,0,NONE,141,961
2026-05-27T23:42:57.062,1270035,0.76,0.01,-0.41,36.6,-57.7,8.1,-17.1,17.3,29.2,101.133,36.89,0,0,0,0,0,NONE,161,1074
2026-05-27T23:42:57.121,1270083,0.8,0.02,-0.69,44.6,-56.9,-5.9,-14.7,16.6,28.1,101.133,36.89,0,0,0,0,0,NONE,102,635
2026-05-27T23:42:57.172,1270135,0.41,0.11,-0.24,36.2,-66.2,-33.1,-12.3,15.4,27.3,101.132,36.9,0,0,0,0,0,NONE,111,714
2026-05-27T23:42:57.223,1270185,0.73,-0.12,-0.16,31.2,-39.8,-25.5,-9.3,14.4,28.1,101.132,36.89,0,0,0,0,0,NONE,113,702
2026-05-27T23:42:57.272,1270233,0.93,-0.1,-0.43,23.7,-10.4,-15.7,-7.9,13.7,25.8,101.133,36.9,0,1,0,0,1,NONE,82,753
2026-05-27T23:42:57.316,1270285,0.86,-0.02,-0.24,3.3,-22.7,-17.3,-7.1,13.2,26.2,101.134,36.89,0,1,0,0,1,NONE,114,702
2026-05-27T23:42:57.374,1270337,0.88,-0.05,-0.26,16.7,-7.3,-14.0,-6.2,13.6,24.4,101.136,36.9,0,1,0,0,1,NONE,61,374
2026-05-27T23:42:57.413,1270383,0.99,0.09,-0.23,30.6,-13.5,-21.1,-5.4,13.7,24.8,101.134,36.89,0,1,0,0,1,NONE,74,405
2026-05-27T23:42:57.465,1270435,0.95,-0.18,-0.29,7.8,0.7,-3.8,-5.2,13.1,25.1,101.131,36.89,0,0,0,0,0,NONE,66,368
2026-05-27T23:42:57.510,1270483,0.98,-0.03,-0.24,8.3,-5.0,-4.2,-4.4,13.2,23.8,101.133,36.89,0,0,0,0,0,NONE,98,633
2026-05-27T23:42:57.574,1270535,0.96,-0.1,-0.18,17.5,-11.2,-5.0,-4.5,13.7,24.2,101.134,36.89,0,1,0,0,1,NONE,127,736
2026-05-27T23:42:57.624,1270587,0.93,-0.1,-0.19,22.7,-2.8,-6.6,-3.7,12.9,24.6,101.132,36.89,0,1,0,0,1,NONE,93,572
2026-05-27T23:42:57.670,1270635,0.95,-0.17,-0.19,21.0,-1.3,-7.9,-3.6,12.0,23.0,101.134,36.9,0,0,0,0,0,NONE,42,231
2026-05-27T23:42:57.719,1270683,0.96,-0.15,-0.21,14.3,3.4,-3.4,-3.1,12.4,23.0,101.133,36.89,0,0,0,0,0,NONE,52,204
2026-05-27T23:42:57.768,1270735,0.96,-0.15,-0.2,7.9,1.8,0.1,-2.1,12.4,23.5,101.135,36.89,0,1,0,0,1,NONE,41,134
2026-05-27T23:42:57.819,1270785,0.93,-0.14,-0.2,2.1,3.7,0.5,-3.3,12.0,22.3,101.136,36.9,0,1,0,0,1,NONE,29,134
2026-05-27T23:42:57.868,1270833,0.93,-0.17,-0.24,-3.5,7.4,2.1,-2.6,12.6,21.6,101.134,36.89,0,1,0,0,1,NONE,43,214
2026-05-27T23:42:57.912,1270885,0.93,-0.14,-0.26,-10.8,9.7,4.8,-2.8,12.2,23.1,101.137,36.9,0,1,0,0,1,NONE,37,268
2026-05-27T23:42:57.974,1270937,0.87,-0.11,-0.34,-4.3,17.6,3.9,-2.8,12.3,24.2,101.138,36.9,0,1,0,0,1,NONE,29,142
2026-05-27T23:42:58.012,1270983,0.85,-0.05,-0.33,-3.3,24.8,6.1,-3.5,13.3,23.6,101.134,36.89,0,1,0,0,1,NONE,29,129
2026-05-27T23:42:58.072,1271035,0.84,-0.11,-0.28,-4.7,28.4,3.9,-4.3,13.1,25.2,101.132,36.9,0,0,0,0,0,NONE,123,664
2026-05-27T23:42:58.121,1271083,0.92,0.02,-0.42,16.7,36.3,9.1,-4.6,13.4,24.4,101.134,36.9,0,0,0,0,0,NONE,190,945
2026-05-27T23:42:58.174,1271135,1.0,-0.04,-0.4,35.5,36.7,12.6,-5.7,12.7,25.4,101.136,36.89,0,0,0,0,0,NONE,161,760
2026-05-27T23:42:58.222,1271185,0.94,-0.16,-0.26,20.3,37.9,12.0,-6.8,11.9,25.9,101.132,36.89,0,0,0,0,0,NONE,108,590
2026-05-27T23:42:58.267,1271233,0.88,-0.11,-0.39,-23.6,64.9,12.8,-8.3,11.6,24.8,101.132,36.9,0,0,0,0,0,NONE,144,831
2026-05-27T23:42:58.319,1271285,0.66,-0.05,-0.49,-44.0,68.6,19.1,-10.1,12.6,26.2,101.133,36.9,0,0,0,0,0,NONE,73,485
2026-05-27T23:42:58.362,1271337,0.47,0.18,-0.4,-31.2,61.6,17.6,-12.8,13.0,25.9,101.136,36.89,0,0,0,0,0,NONE,61,286
2026-05-27T23:42:58.415,1271383,0.59,0.05,-0.47,-25.5,90.0,8.3,-14.9,15.4,27.4,101.136,36.89,0,0,0,0,0,NONE,243,1431
2026-05-27T23:42:58.475,1271437,0.76,-0.08,-0.62,-5.0,89.1,0.9,-17.5,15.7,28.5,101.133,36.9,0,0,0,0,0,NONE,100,610
2026-05-27T23:42:58.509,1271483,-0.26,0.08,-0.6,34.4,98.1,-11.4,-19.8,16.3,29.3,101.137,36.9,0,0,0,0,0,NONE,131,559
2026-05-27T23:42:58.573,1271535,0.7,-0.15,-0.72,33.0,84.2,8.3,-22.5,15.5,27.5,101.136,36.89,0,0,0,0,0,NONE,205,922
2026-05-27T23:42:58.619,1271584,0.66,-0.13,-0.93,41.0,100.3,0.1,-22.5,15.5,27.5,101.133,36.89,0,0,0,0,0,NONE,92,395
2026-05-27T23:42:58.668,1271633,0.87,-0.26,-0.75,-7.8,49.4,-1.2,-29.1,14.0,25.1,101.134,36.89,0,0,0,0,0,NONE,58,314
2026-05-27T23:42:58.723,1271685,0.47,-0.1,-1.02,-5.6,75.1,8.7,-30.5,14.6,25.0,101.137,36.89,0,0,0,0,0,NONE,88,479
2026-05-27T23:42:58.767,1271733,0.63,0.04,-1.06,22.0,44.3,-2.3,-32.4,14.7,24.1,101.139,36.89,0,0,0,0,0,NONE,112,556
2026-05-27T23:42:58.817,1271785,0.52,0.02,-1.0,3.7,29.4,5.2,-33.0,14.4,23.1,101.14,36.9,0,0,0,0,0,NONE,175,735
2026-05-27T23:42:58.862,1271835,0.52,-0.06,-1.22,21.0,38.2,-9.7,-33.7,14.1,22.7,101.134,36.9,0,0,0,0,0,NONE,68,406
2026-05-27T23:42:58.920,1271883,0.5,-0.14,-0.96,5.0,3.4,-8.2,-33.7,13.4,22.3,101.14,36.89,0,0,0,0,0,NONE,53,303
2026-05-27T23:42:58.962,1271935,0.26,-0.05,-0.95,8.3,18.9,8.8,-33.8,13.9,22.7,101.14,36.9,0,0,0,0,0,NONE,28,158
2026-05-27T23:42:59.025,1271986,0.36,-0.11,-1.08,12.9,23.3,10.3,-34.5,13.1,22.4,101.139,36.89,0,0,0,0,0,NONE,134,732
2026-05-27T23:42:59.071,1272035,0.21,0.01,-0.8,8.1,0.3,14.3,-34.5,13.6,22.6,101.136,36.89,0,0,0,0,0,NONE,152,671
2026-05-27T23:42:59.121,1272083,0.32,-0.0,-0.91,-2.0,-4.2,4.0,-34.7,13.2,22.2,101.137,36.89,0,0,0,0,0,NONE,85,515
2026-05-27T23:42:59.171,1272135,0.32,-0.04,-0.85,-6.2,-11.1,1.3,-33.7,13.9,22.8,101.14,36.89,0,0,0,0,0,NONE,106,702
2026-05-27T23:42:59.225,1272185,0.36,-0.03,-0.95,-7.8,-25.7,-6.7,-33.6,13.6,23.4,101.138,36.89,0,0,0,0,0,NONE,59,420
2026-05-27T23:42:59.271,1272233,0.41,-0.19,-1.03,-26.9,-30.5,-3.4,-32.6,14.1,23.8,101.14,36.89,0,0,0,0,0,NONE,25,158
2026-05-27T23:42:59.316,1272285,0.68,-0.1,-1.03,-80.2,-51.8,-2.2,-31.3,15.8,25.6,101.136,36.9,0,0,0,0,0,NONE,277,1049
2026-05-27T23:42:59.376,1272337,0.67,-0.15,-1.34,-21.5,-39.9,-9.7,-30.5,17.3,26.9,101.139,36.9,0,0,0,0,0,NONE,273,1045
2026-05-27T23:42:59.417,1272383,0.73,-0.08,-1.06,-10.2,-79.6,8.2,-28.2,17.2,27.6,101.139,36.9,0,0,0,0,0,NONE,234,963
2026-05-27T23:42:59.472,1272435,0.57,-0.21,-0.64,7.3,-68.0,10.4,-26.4,17.6,28.0,101.139,36.89,0,0,0,0,0,NONE,159,772
2026-05-27T23:42:59.521,1272483,0.7,-0.26,-0.74,-12.6,-68.0,14.0,-24.2,17.7,28.9,101.142,36.89,0,0,0,0,0,NONE,228,991
2026-05-27T23:42:59.571,1272535,0.76,-0.14,-0.68,-14.0,-74.3,5.1,-22.4,18.4,28.2,101.14,36.89,0,0,0,0,0,NONE,175,829
2026-05-27T23:42:59.616,1272587,0.73,-0.2,-0.62,1.8,-70.7,-1.8,-19.9,18.3,29.7,101.138,36.9,0,0,0,0,0,NONE,150,854
2026-05-27T23:42:59.668,1272635,0.83,-0.24,-0.6,5.7,-63.2,-4.0,-17.6,18.0,29.5,101.138,36.89,0,0,0,0,0,NONE,80,457
2026-05-27T23:42:59.716,1272683,0.8,-0.19,-0.4,-1.6,-48.1,1.0,-16.1,18.0,29.2,101.142,36.9,0,0,0,0,0,NONE,58,399
2026-05-27T23:42:59.764,1272735,0.85,-0.09,-0.42,5.2,-41.9,3.0,-14.5,17.8,29.3,101.141,36.89,0,1,0,0,1,NONE,34,204
2026-05-27T23:42:59.823,1272785,0.85,-0.12,-0.36,13.2,-34.5,-2.6,-13.2,17.5,28.3,101.138,36.9,0,1,0,0,1,NONE,35,167
2026-05-27T23:42:59.872,1272833,0.86,-0.24,-0.31,-0.2,-22.6,-1.0,-12.2,17.7,28.7,101.138,36.89,0,0,0,0,0,NONE,30,209
2026-05-27T23:42:59.920,1272885,0.91,-0.28,-0.37,5.2,-14.2,-2.6,-11.5,17.7,25.9,101.139,36.89,0,0,0,0,0,NONE,28,132
2026-05-27T23:42:59.968,1272937,0.91,-0.26,-0.29,3.5,-17.3,-0.9,-10.2,17.7,26.7,101.138,36.89,0,0,0,0,0,NONE,38,159
2026-05-27T23:43:00.020,1272983,0.9,-0.23,-0.28,1.0,-9.7,9.8,-10.1,17.9,27.3,101.139,36.89,0,0,0,0,0,NONE,229,819
2026-05-27T23:43:00.063,1273035,0.93,-0.17,-0.29,-5.0,-4.6,13.4,-9.7,17.2,27.3,101.141,36.9,0,0,0,0,0,NONE,122,672
2026-05-27T23:43:00.111,1273083,0.93,-0.14,-0.31,-4.7,-8.7,11.7,-9.1,17.1,27.5,101.137,36.89,0,0,0,0,0,NONE,73,521
2026-05-27T23:43:00.158,1273135,0.88,-0.19,-0.33,2.4,-2.9,5.9,-9.2,17.8,27.0,101.139,36.9,0,0,0,0,0,NONE,89,377
2026-05-27T23:43:00.223,1273187,0.87,-0.17,-0.4,4.0,2.9,1.5,-9.3,17.9,27.3,101.139,36.9,0,0,0,0,0,NONE,33,166
2026-05-27T23:43:00.272,1273235,0.89,-0.18,-0.33,5.4,7.4,2.9,-9.0,17.7,27.1,101.136,36.9,0,0,0,0,0,NONE,19,94
2026-05-27T23:43:00.320,1273283,0.94,-0.2,-0.39,2.7,10.1,3.4,-9.5,17.5,26.7,101.138,36.9,0,0,0,0,0,NONE,25,113
2026-05-27T23:43:00.372,1273335,0.88,-0.19,-0.26,2.0,7.8,3.4,-9.5,17.0,27.4,101.14,36.9,0,0,0,0,0,NONE,38,70
2026-05-27T23:43:00.422,1273385,0.92,-0.09,-0.36,12.3,16.5,4.6,-10.0,17.1,28.1,101.14,36.9,0,0,0,0,0,NONE,28,123
2026-05-27T23:43:00.468,1273433,0.88,-0.21,-0.33,4.6,30.6,-0.5,-9.7,17.6,26.9,101.139,36.9,0,0,0,0,0,NONE,26,132
2026-05-27T23:43:00.513,1273485,0.89,-0.16,-0.31,7.6,30.9,1.9,-10.7,17.1,27.5,101.135,36.89,0,0,0,0,0,NONE,43,260
2026-05-27T23:43:00.567,1273537,0.86,-0.22,-0.37,7.0,50.5,2.2,-11.8,17.2,26.8,101.138,36.9,0,0,0,0,0,NONE,45,228
2026-05-27T23:43:00.610,1273583,0.84,-0.21,-0.35,17.3,55.5,2.0,-13.5,17.6,28.3,101.14,36.9,0,0,0,0,0,NONE,73,329
2026-05-27T23:43:00.674,1273635,0.9,-0.22,-0.49,-5.0,57.9,13.7,-15.0,17.2,28.1,101.141,36.89,0,0,0,0,0,NONE,65,361
2026-05-27T23:43:00.722,1273683,0.77,-0.14,-0.46,-13.7,54.4,24.4,-16.3,17.5,28.2,101.137,36.9,0,0,0,0,0,NONE,68,489
2026-05-27T23:43:00.770,1273735,0.8,0.05,-0.56,-8.4,62.4,14.9,-19.0,18.2,28.0,101.14,36.9,0,0,0,0,0,NONE,108,710
2026-05-27T23:43:00.822,1273787,0.76,-0.1,-0.71,10.3,77.4,6.7,-20.7,18.8,30.1,101.141,36.9,0,0,0,0,0,NONE,163,902
2026-05-27T23:43:00.866,1273835,0.63,-0.17,-0.66,1.3,85.4,1.1,-23.4,18.5,28.7,101.14,36.89,0,0,0,0,0,NONE,165,927
2026-05-27T23:43:00.918,1273883,0.56,-0.15,-0.76,20.9,103.7,0.6,-25.7,18.6,28.1,101.142,36.9,0,0,0,0,0,NONE,78,391
2026-05-27T23:43:00.966,1273935,0.51,-0.19,-0.83,15.7,103.8,6.5,-29.0,18.1,27.1,101.138,36.9,0,0,0,0,0,NONE,85,447
2026-05-27T23:43:01.014,1273985,0.51,-0.16,-0.95,28.9,123.7,-2.4,-32.0,18.3,26.5,101.141,36.9,0,0,0,0,0,NONE,87,383
2026-05-27T23:43:01.071,1274033,0.47,-0.17,-1.1,-3.7,75.0,-1.5,-33.7,17.6,24.5,101.14,36.9,0,0,0,0,0,NONE,91,421
2026-05-27T23:43:01.121,1274085,0.42,-0.11,-1.22,22.2,60.4,6.3,-36.6,18.0,25.4,101.139,36.9,0,0,0,0,0,NONE,51,273
2026-05-27T23:43:01.173,1274137,0.42,-0.17,-1.29,2.2,35.9,-2.9,-37.4,17.2,22.7,101.14,36.89,0,0,0,0,0,NONE,85,531
2026-05-27T23:43:01.217,1274183,0.38,-0.09,-1.28,21.4,8.1,1.3,-37.5,17.4,23.3,101.138,36.9,0,0,0,0,0,NONE,69,416
2026-05-27T23:43:01.265,1274235,0.43,-0.14,-1.24,13.4,-21.1,-1.9,-37.5,16.1,22.0,101.136,36.89,0,0,0,0,0,NONE,58,213
2026-05-27T23:43:01.316,1274283,0.46,-0.08,-1.38,11.0,-27.2,-1.4,-38.0,16.9,22.1,101.138,36.9,0,0,0,0,0,NONE,55,335
2026-05-27T23:43:01.369,1274335,0.51,-0.1,-1.12,7.8,-47.5,-3.7,-37.3,16.4,23.2,101.138,36.9,0,0,0,0,0,NONE,50,303
2026-05-27T23:43:01.424,1274387,0.5,-0.06,-0.95,-5.1,-62.1,6.3,-36.2,16.1,22.5,101.138,36.91,0,0,0,0,0,NONE,83,426
2026-05-27T23:43:01.473,1274435,0.5,-0.23,-0.95,-7.0,-110.3,18.4,-34.1,16.7,23.7,101.137,36.9,0,0,0,0,0,NONE,46,306
2026-05-27T23:43:01.521,1274483,0.43,-0.06,-0.89,-10.1,-113.2,9.6,-32.3,16.6,26.2,101.139,36.9,0,0,0,0,0,NONE,37,212
2026-05-27T23:43:01.571,1274535,0.48,-0.07,-0.71,-6.2,-98.6,1.4,-29.3,17.1,26.5,101.134,36.89,0,0,0,0,0,NONE,50,375
2026-05-27T23:43:01.616,1274585,0.44,0.03,-0.5,-13.2,-85.7,5.9,-26.4,17.2,29.4,101.137,36.9,0,0,0,0,0,NONE,65,408
2026-05-27T23:43:01.665,1274634,0.75,0.12,-0.56,-6.4,-84.3,10.3,-23.6,17.3,29.1,101.134,36.9,0,0,0,0,0,NONE,74,457
2026-05-27T23:43:01.725,1274685,0.39,0.06,-0.43,-17.5,-60.1,-14.8,-20.8,17.0,28.8,101.133,36.9,0,0,0,0,0,NONE,395,2757
2026-05-27T23:43:01.775,1274737,0.62,0.02,-0.27,-1.0,-74.5,-6.7,-18.1,17.7,29.1,101.133,36.9,0,0,0,0,0,NONE,496,2433
2026-05-27T23:43:01.811,1274783,0.54,-0.18,-0.39,13.7,-44.1,14.0,-15.1,17.7,28.9,101.138,36.9,0,0,0,0,0,NONE,140,882
2026-05-27T23:43:01.873,1274835,0.85,0.13,-0.52,33.8,-36.4,13.9,-13.1,16.7,28.6,101.136,36.9,0,0,0,0,0,NONE,129,616
2026-05-27T23:43:01.920,1274883,0.82,-0.13,-0.4,30.9,-56.5,-5.6,-12.2,15.5,28.0,101.135,36.9,0,0,0,0,0,NONE,76,397
2026-05-27T23:43:01.973,1274935,0.84,-0.04,-0.41,20.1,-27.6,-4.1,-10.3,14.7,26.7,101.137,36.9,0,0,0,0,0,NONE,141,846
2026-05-27T23:43:02.021,1274987,0.9,-0.01,-0.42,21.7,-31.9,-7.3,-9.3,13.8,26.3,101.133,36.9,0,0,0,0,0,NONE,66,317
2026-05-27T23:43:02.068,1275035,0.91,-0.1,-0.28,23.9,-22.4,-10.4,-7.8,13.9,26.0,101.134,36.9,0,0,0,0,0,NONE,67,353
2026-05-27T23:43:02.112,1275083,0.92,-0.15,-0.28,16.0,-24.3,-11.1,-7.1,13.4,25.6,101.134,36.9,0,0,0,0,0,NONE,65,373
2026-05-27T23:43:02.167,1275132,0.89,-0.11,-0.26,-0.6,-12.1,-6.3,-7.1,13.4,25.6,101.131,36.9,0,0,0,0,0,NONE,59,244
2026-05-27T23:43:02.222,1275187,0.95,-0.04,-0.26,1.6,-9.0,-2.9,-4.9,13.3,24.0,101.135,36.9,0,0,0,0,0,NONE,81,453
2026-05-27T23:43:02.270,1275233,0.93,-0.07,-0.26,5.8,-8.7,-4.0,-3.7,13.2,25.0,101.135,36.9,0,0,0,0,0,NONE,71,432
2026-05-27T23:43:02.321,1275284,0.98,0.02,-0.24,11.6,-3.8,-4.3,-3.7,13.3,25.6,101.132,36.89,0,0,0,0,0,NONE,75,495
2026-05-27T23:43:02.369,1275334,0.99,-0.16,-0.19,16.4,-4.7,-4.3,-3.5,12.7,23.6,101.133,36.9,0,0,0,0,0,NONE,50,362
2026-05-27T23:43:02.412,1275385,0.99,-0.11,-0.21,11.2,-4.0,0.6,-3.4,13.0,23.6,101.135,36.9,0,0,0,0,0,NONE,48,275
2026-05-27T23:43:02.470,1275433,0.94,-0.18,-0.2,3.5,7.7,11.3,-3.0,12.7,23.2,101.134,36.9,0,0,0,0,0,NONE,52,220
2026-05-27T23:43:02.523,1275485,0.95,-0.2,-0.27,4.0,-4.8,2.6,-2.9,12.7,23.4,101.132,36.9,0,0,0,0,0,NONE,59,368
2026-05-27T23:43:02.573,1275537,0.9,0.08,-0.04,2.5,0.7,-1.8,-2.9,12.4,23.3,101.135,36.9,0,0,0,0,0,NONE,110,573
2026-05-27T23:43:02.618,1275585,0.99,-0.17,-0.2,0.7,8.3,-7.1,-3.1,13.0,23.5,101.134,36.9,0,0,0,0,0,NONE,73,434
2026-05-27T23:43:02.666,1275633,0.97,-0.14,-0.17,2.0,6.4,-2.2,-2.9,12.8,23.1,101.135,36.9,0,0,0,0,0,NONE,64,381
2026-05-27T23:43:02.721,1275685,0.97,-0.07,-0.17,7.2,5.1,2.6,-2.6,13.1,23.5,101.135,36.9,0,0,0,0,0,NONE,36,206
2026-05-27T23:43:02.764,1275737,0.96,-0.09,-0.18,12.5,7.3,4.0,-3.4,12.7,23.1,101.133,36.9,0,0,0,0,0,NONE,36,201
2026-05-27T23:43:02.813,1275783,0.93,-0.11,-0.18,5.9,10.7,2.9,-3.5,12.8,22.8,101.135,36.91,0,0,0,0,0,NONE,27,146
2026-05-27T23:43:02.873,1275835,0.97,-0.09,-0.2,3.2,13.7,3.4,-3.7,12.3,23.4,101.137,36.9,0,0,0,0,0,NONE,97,573
2026-05-27T23:43:02.921,1275883,0.94,-0.09,-0.2,0.1,18.4,4.3,-4.2,12.7,23.5,101.139,36.9,0,0,0,0,0,NONE,138,818
2026-05-27T23:43:02.972,1275935,0.93,-0.09,-0.25,-5.4,15.0,6.3,-4.5,13.0,23.9,101.134,36.9,0,0,0,0,0,NONE,101,657
2026-05-27T23:43:03.021,1275987,0.91,-0.1,-0.24,-3.4,20.0,3.2,-4.9,12.9,23.5,101.139,36.9,0,0,0,0,0,NONE,61,403
2026-05-27T23:43:03.069,1276035,0.87,-0.12,-0.25,-7.6,27.2,2.0,-5.6,13.9,25.6,101.136,36.91,0,0,0,0,0,NONE,32,226
2026-05-27T23:43:03.115,1276083,0.83,-0.06,-0.34,-11.4,41.4,1.2,-6.5,13.9,25.6,101.131,36.9,0,0,0,0,0,NONE,30,193
2026-05-27T23:43:03.165,1276135,0.8,-0.15,-0.39,-5.4,45.6,-3.0,-7.5,14.3,26.5,101.137,36.9,0,0,0,0,0,NONE,40,198
2026-05-27T23:43:03.224,1276185,0.76,-0.16,-0.4,-18.6,58.1,2.3,-8.4,14.7,26.8,101.137,36.91,0,0,0,0,0,NONE,37,231
2026-05-27T23:43:03.265,1276233,0.72,-0.04,-0.51,-32.0,42.9,6.4,-10.0,15.8,27.1,101.137,36.9,0,0,0,0,0,NONE,61,362
2026-05-27T23:43:03.320,1276285,0.8,-0.05,-0.33,-1.3,47.9,-0.3,-11.6,16.3,28.1,101.132,36.9,0,0,0,0,0,NONE,47,281
2026-05-27T23:43:03.369,1276337,0.75,-0.07,-0.52,9.1,60.6,-0.1,-13.7,16.6,28.5,101.138,36.91,0,0,0,0,0,NONE,59,332
2026-05-27T23:43:03.417,1276383,0.66,-0.13,-0.45,-21.5,71.2,-0.6,-15.5,17.1,28.7,101.133,36.9,0,0,0,0,0,NONE,57,318
2026-05-27T23:43:03.466,1276435,0.85,-0.22,-0.43,19.1,67.3,1.8,-17.4,17.2,28.3,101.135,36.9,0,0,0,0,0,NONE,45,258
2026-05-27T23:43:03.516,1276483,0.67,-0.05,-0.68,16.2,110.5,2.9,-19.6,16.7,27.7,101.137,36.9,0,0,0,0,0,NONE,92,542
2026-05-27T23:43:03.572,1276535,0.54,-0.17,-0.52,11.5,81.2,9.3,-22.2,16.9,29.0,101.135,36.9,0,0,0,0,0,NONE,66,347
2026-05-27T23:43:03.624,1276587,0.76,-0.09,-0.75,17.0,56.1,-6.2,-24.9,17.0,28.0,101.137,36.9,0,0,0,0,0,NONE,54,354
2026-05-27T23:43:03.671,1276635,0.53,0.02,-0.79,33.8,62.4,-2.3,-26.4,16.2,26.3,101.138,36.9,0,0,0,0,0,NONE,65,431
2026-05-27T23:43:03.721,1276683,0.47,-0.24,-0.81,19.6,52.9,5.7,-28.1,15.9,26.9,101.136,36.9,0,0,0,0,0,NONE,65,330
2026-05-27T23:43:03.766,1276736,0.65,-0.19,-0.98,21.8,33.8,8.1,-29.6,15.4,25.3,101.132,36.9,0,0,0,0,0,NONE,86,585
2026-05-27T23:43:03.819,1276785,0.49,0.17,-0.83,14.2,41.3,15.4,-30.4,15.1,25.1,101.137,36.9,0,0,0,0,0,NONE,93,539
2026-05-27T23:43:03.872,1276834,0.48,-0.09,-1.06,15.9,36.9,6.5,-31.6,15.6,26.0,101.14,36.9,0,0,0,0,0,NONE,103,616
2026-05-27T23:43:03.908,1276885,0.65,-0.11,-1.07,4.0,44.3,3.4,-32.9,15.3,24.2,101.136,36.91,0,0,0,0,0,NONE,71,389
2026-05-27T23:43:03.973,1276937,0.45,0.02,-0.99,14.4,51.9,4.5,-33.4,14.9,23.2,101.142,36.9,0,0,0,0,0,NONE,164,797
2026-05-27T23:43:04.020,1276983,0.48,0.01,-0.87,7.1,26.0,-7.4,-34.4,14.2,23.2,101.137,36.9,0,0,0,0,0,NONE,77,536
2026-05-27T23:43:04.073,1277036,0.41,-0.24,-1.1,-6.0,28.9,-8.4,-35.1,14.6,22.5,101.138,36.91,0,0,0,0,0,NONE,57,364
2026-05-27T23:43:04.120,1277083,0.31,-0.04,-0.94,-11.5,18.2,-8.5,-34.9,15.2,22.0,101.14,36.9,0,0,0,0,0,NONE,66,438
2026-05-27T23:43:04.172,1277136,0.44,-0.1,-1.05,-0.9,11.5,-4.9,-35.6,14.6,23.2,101.139,36.9,0,0,0,0,0,NONE,52,321
2026-05-27T23:43:04.218,1277187,0.39,-0.03,-0.89,-3.2,-19.9,0.3,-35.2,14.7,22.5,101.138,36.91,0,0,0,0,0,NONE,99,472
2026-05-27T23:43:04.269,1277235,0.41,-0.02,-0.93,-0.3,-38.6,-1.6,-34.7,14.9,24.4,101.142,36.9,0,0,0,0,0,NONE,44,235
2026-05-27T23:43:04.317,1277283,0.42,0.04,-1.04,-1.0,-41.0,4.5,-33.2,15.5,23.3,101.139,36.91,0,0,0,0,0,NONE,89,517
2026-05-27T23:43:04.374,1277336,0.46,-0.0,-1.03,-1.6,-58.0,8.5,-32.2,15.0,24.7,101.138,36.9,0,0,0,0,0,NONE,64,518
2026-05-27T23:43:04.422,1277385,0.59,0.06,-1.0,-7.4,-56.9,2.7,-30.8,15.4,25.6,101.139,36.9,0,0,0,0,0,NONE,82,566
2026-05-27T23:43:04.470,1277434,0.66,0.01,-1.07,3.8,-55.1,0.4,-29.5,15.8,25.6,101.138,36.91,0,0,0,0,0,NONE,75,448
2026-05-27T23:43:04.522,1277485,0.64,-0.12,-0.85,-13.5,-78.3,-0.9,-27.8,15.9,27.8,101.137,36.9,0,0,0,0,0,NONE,184,996
2026-05-27T23:43:04.568,1277537,0.63,-0.14,-0.66,-7.1,-64.3,-5.7,-25.4,16.1,27.3,101.142,36.9,0,0,0,0,0,NONE,141,770
2026-05-27T23:43:04.614,1277583,0.73,-0.21,-0.68,-8.7,-61.5,-11.7,-23.3,16.0,27.3,101.139,36.9,0,0,0,0,0,NONE,116,640
2026-05-27T23:43:04.668,1277636,0.8,-0.21,-0.69,-0.3,-69.7,-21.5,-21.4,16.0,27.9,101.136,36.91,0,0,0,0,0,NONE,136,859
2026-05-27T23:43:04.715,1277683,0.76,-0.21,-0.52,-2.1,-74.0,-24.0,-18.4,15.9,29.2,101.14,36.9,0,0,0,0,0,NONE,171,1068
2026-05-27T23:43:04.768,1277735,0.79,-0.19,-0.42,5.9,-52.2,-14.8,-16.6,16.4,29.2,101.138,36.9,0,0,0,0,0,NONE,234,1162
2026-05-27T23:43:04.825,1277787,0.89,-0.22,-0.41,0.4,-45.8,-4.1,-14.2,16.5,27.9,101.14,36.9,0,0,0,0,0,NONE,299,1594
2026-05-27T23:43:04.872,1277835,0.83,-0.21,-0.33,-1.6,-30.6,1.8,-13.0,16.7,27.5,101.139,36.91,0,0,0,0,0,NONE,360,1753
2026-05-27T23:43:04.921,1277883,0.91,-0.2,-0.35,-2.6,-24.2,7.8,-11.7,16.2,26.8,101.14,36.9,0,0,0,0,0,NONE,190,1129
2026-05-27T23:43:04.971,1277935,0.9,-0.24,-0.34,-4.3,-29.0,0.5,-11.1,16.5,26.4,101.142,36.9,0,0,0,0,0,NONE,101,530
2026-05-27T23:43:05.016,1277983,0.92,-0.22,-0.31,-8.1,-29.0,4.7,-9.9,15.8,26.4,101.14,36.9,0,0,0,0,0,NONE,75,476
2026-05-27T23:43:05.071,1278036,0.88,-0.24,-0.3,-3.1,-24.2,8.6,-9.1,16.7,26.1,101.141,36.9,0,0,0,0,0,NONE,72,370
2026-05-27T23:43:05.116,1278085,0.9,-0.19,-0.3,-5.7,-19.2,6.5,-8.2,16.3,26.6,101.14,36.9,0,0,0,0,0,NONE,74,435
2026-05-27T23:43:05.171,1278134,0.91,-0.15,-0.25,0.2,-7.6,9.2,-7.3,16.4,26.3,101.139,36.91,0,0,0,0,0,NONE,52,354
2026-05-27T23:43:05.224,1278185,0.91,-0.2,-0.2,-10.6,-4.2,6.4,-7.4,17.1,27.3,101.139,36.91,0,0,0,0,0,NONE,54,321
2026-05-27T23:43:05.275,1278237,0.9,-0.14,-0.25,3.5,9.8,5.6,-7.1,16.7,26.4,101.139,36.91,0,0,0,0,0,NONE,146,759
2026-05-27T23:43:05.320,1278283,0.93,-0.21,-0.18,13.2,15.1,3.6,-7.6,17.8,26.0,101.137,36.9,0,0,0,0,0,NONE,70,365
2026-05-27T23:43:05.373,1278335,0.89,-0.17,-0.25,4.3,36.9,6.2,-8.2,17.0,26.9,101.139,36.9,0,0,0,0,0,NONE,238,1053
2026-05-27T23:43:05.421,1278383,0.93,-0.14,-0.32,9.6,35.2,5.9,-8.6,17.2,25.6,101.14,36.91,0,0,0,0,0,NONE,214,865
2026-05-27T23:43:05.472,1278435,0.88,-0.17,-0.29,3.0,50.3,6.0,-9.8,16.6,27.1,101.141,36.91,0,0,0,0,0,NONE,91,549
2026-05-27T23:43:05.516,1278487,0.85,-0.19,-0.33,15.9,59.5,4.1,-11.0,16.9,26.3,101.141,36.91,0,0,0,0,0,NONE,140,726
2026-05-27T23:43:05.573,1278535,0.85,-0.16,-0.43,13.5,67.2,3.5,-12.8,16.3,28.2,101.139,36.9,0,0,0,0,0,NONE,91,579
2026-05-27T23:43:05.620,1278583,0.8,-0.17,-0.5,14.0,70.3,8.3,-14.8,16.1,27.6,101.141,36.91,0,0,0,0,0,NONE,91,675
2026-05-27T23:43:05.674,1278635,0.77,-0.11,-0.61,17.2,75.5,18.8,-17.4,16.2,27.0,101.14,36.91,0,0,0,0,0,NONE,137,790
2026-05-27T23:43:05.725,1278685,0.77,-0.14,-0.64,24.2,71.5,13.1,-18.8,15.7,27.6,101.141,36.9,0,0,0,0,0,NONE,109,474
2026-05-27T23:43:05.767,1278734,0.68,-0.12,-0.69,12.3,89.4,17.1,-18.8,15.7,27.6,101.138,36.9,0,0,0,0,0,NONE,121,696
2026-05-27T23:43:05.819,1278785,0.63,-0.1,-0.74,9.6,92.0,17.3,-26.2,16.1,27.0,101.139,36.91,0,0,0,0,0,NONE,124,734
2026-05-27T23:43:05.875,1278837,0.57,-0.05,-0.85,22.3,94.9,16.1,-29.4,15.0,26.7,101.142,36.91,0,0,0,0,0,NONE,67,437
2026-05-27T23:43:05.916,1278883,0.61,-0.07,-0.92,12.8,84.8,13.2,-31.8,15.1,24.4,101.142,36.9,0,0,0,0,0,NONE,66,387
2026-05-27T23:43:05.974,1278936,0.48,-0.02,-1.01,12.9,76.9,15.1,-33.2,15.0,24.4,101.138,36.9,0,0,0,0,0,NONE,81,573
2026-05-27T23:43:06.019,1278983,0.45,-0.05,-1.1,7.1,59.4,13.9,-35.3,15.4,23.4,101.14,36.9,0,0,0,0,0,NONE,94,576
2026-05-27T23:43:06.072,1279035,0.43,-0.03,-1.15,3.5,43.0,12.6,-36.2,15.0,23.4,101.139,36.91,0,0,0,0,0,NONE,113,610
2026-05-27T23:43:06.122,1279085,0.39,0.06,-1.06,0.3,27.5,4.3,-37.1,16.0,23.8,101.139,36.91,0,0,0,0,0,NONE,53,450
2026-05-27T23:43:06.171,1279134,0.37,-0.02,-1.17,1.6,18.9,-3.4,-37.0,15.9,21.9,101.139,36.91,0,0,0,0,0,NONE,66,489
2026-05-27T23:43:06.219,1279185,0.3,0.03,-1.18,5.0,-4.5,-5.9,-36.9,15.9,22.4,101.133,36.9,0,0,0,0,0,NONE,152,674
2026-05-27T23:43:06.274,1279237,0.41,-0.0,-0.99,12.6,-12.4,-6.5,-36.9,15.7,21.7,101.141,36.91,0,0,0,0,0,NONE,93,423
2026-05-27T23:43:06.323,1279283,0.44,-0.06,-1.16,-3.1,-20.6,1.6,-36.6,15.7,23.1,101.141,36.91,0,0,0,0,0,NONE,80,396
2026-05-27T23:43:06.364,1279337,0.39,0.02,-1.1,-5.5,-20.4,-0.2,-36.2,16.3,23.1,101.138,36.91,0,0,0,0,0,NONE,93,489
2026-05-27T23:43:06.412,1279383,0.42,-0.03,-1.03,-10.0,-19.2,-2.3,-35.4,16.2,23.3,101.138,36.91,0,0,0,0,0,NONE,123,804
2026-05-27T23:43:06.472,1279436,0.45,-0.04,-1.0,-5.9,-21.5,6.2,-33.8,16.1,23.0,101.14,36.91,0,0,0,0,0,NONE,136,669
2026-05-27T23:43:06.521,1279486,0.56,0.05,-1.04,-8.2,-49.5,15.9,-34.2,16.5,25.0,101.14,36.91,0,0,0,0,0,NONE,83,470
2026-05-27T23:43:06.570,1279535,0.57,-0.05,-0.97,22.3,-93.1,25.9,-32.3,16.9,25.0,101.137,36.91,0,0,0,0,0,NONE,57,240
2026-05-27T23:43:06.619,1279583,0.46,0.04,-0.8,14.6,-73.0,19.0,-30.6,16.1,25.3,101.136,36.9,0,0,0,0,0,NONE,80,393
2026-05-27T23:43:06.673,1279635,0.51,-0.13,-0.76,7.9,-65.6,10.0,-28.4,15.9,26.0,101.139,36.91,0,0,0,0,0,NONE,84,442
2026-05-27T23:43:06.712,1279685,0.68,-0.08,-0.78,-0.1,-63.0,6.4,-26.8,16.1,26.9,101.136,36.91,0,0,0,0,0,NONE,87,399
2026-05-27T23:43:06.760,1279734,0.71,0.03,-0.65,-9.2,-58.3,-1.3,-24.8,16.1,27.7,101.132,36.91,0,0,0,0,0,NONE,154,982
2026-05-27T23:43:06.808,1279785,0.79,-0.01,-0.63,-26.4,-60.3,-0.4,-22.2,17.0,28.1,101.136,36.9,0,0,0,0,0,NONE,132,796
2026-05-27T23:43:06.874,1279837,0.75,-0.02,-0.5,-16.8,-61.3,-0.2,-20.0,17.3,29.1,101.138,36.91,0,0,0,0,0,NONE,672,2826
2026-05-27T23:43:06.921,1279883,0.8,-0.03,-0.46,11.5,-58.8,0.8,-17.8,17.1,29.3,101.135,36.91,0,0,0,0,0,NONE,442,1961
2026-05-27T23:43:06.971,1279935,0.68,-0.03,-0.39,14.2,-52.9,1.0,-15.8,16.6,28.2,101.135,36.9,0,0,0,0,0,NONE,137,656
2026-05-27T23:43:07.015,1279983,0.8,-0.07,-0.48,32.8,-66.2,-9.6,-13.9,15.7,28.7,101.133,36.91,0,0,0,0,0,NONE,116,557
2026-05-27T23:43:07.067,1280035,0.69,-0.1,-0.48,38.1,-51.2,-10.4,-12.0,15.2,27.2,101.134,36.9,0,0,0,0,0,NONE,108,653
2026-05-27T23:43:07.115,1280086,0.73,0.0,-0.48,33.6,-41.4,-5.6,-10.7,13.9,27.1,101.137,36.91,0,0,0,0,0,NONE,86,599
