pc_timestamp_iso,ms,ax,ay,az,gx,gy,gz,mx,my,mz,press,baro_t,prox,cr,cg,cb,light,gesture,mic,p2p
2026-05-27T23:31:26.093,579041,1.08,-0.19,-0.23,-25.5,13.5,6.8,-2.9,12.5,21.3,101.127,35.21,0,1,0,1,2,NONE,42,202
2026-05-27T23:31:26.137,579079,0.95,0.04,-0.17,-7.5,-6.3,9.2,-3.4,12.3,22.9,101.124,35.23,0,1,0,1,2,NONE,45,206
2026-05-27T23:31:26.187,579128,0.96,-0.12,-0.16,16.9,-2.1,3.4,-3.3,13.3,22.1,101.124,35.24,0,1,0,0,1,NONE,41,198
2026-05-27T23:31:26.231,579180,0.89,-0.19,-0.19,-1.7,8.0,0.0,-2.9,12.8,22.7,101.124,35.25,0,1,0,0,1,NONE,71,439
2026-05-27T23:31:26.279,579229,0.9,-0.09,-0.2,0.1,9.5,-1.5,-4.1,13.3,23.3,101.119,35.25,0,1,0,0,1,NONE,39,220
2026-05-27T23:31:26.332,579280,0.92,-0.09,-0.17,2.1,13.1,-3.3,-3.9,13.2,22.9,101.123,35.25,0,1,0,0,1,NONE,60,260
2026-05-27T23:31:26.380,579332,0.95,-0.12,-0.17,-0.1,18.2,-5.9,-3.8,13.4,23.0,101.121,35.26,0,1,0,0,1,NONE,44,167
2026-05-27T23:31:26.426,579380,0.98,-0.18,-0.12,-7.6,15.8,-7.9,-4.0,14.1,22.9,101.124,35.26,0,1,0,0,1,NONE,39,227
2026-05-27T23:31:26.489,579428,1.05,-0.08,-0.24,-5.1,19.7,-6.0,-4.0,14.5,23.1,101.126,35.27,0,1,0,0,1,NONE,39,208
2026-05-27T23:31:26.537,579477,0.97,-0.14,-0.28,5.3,18.7,-3.8,-4.0,14.5,23.1,101.126,35.27,0,1,0,0,1,NONE,31,163
2026-05-27T23:31:26.585,579529,0.96,-0.19,-0.21,2.8,18.6,-5.6,-5.0,14.9,24.9,101.123,35.28,0,1,0,0,1,NONE,36,184
2026-05-27T23:31:26.633,579580,0.8,-0.23,-0.27,-16.2,18.2,-9.5,-4.8,14.7,25.2,101.126,35.28,0,1,0,0,1,NONE,35,176
2026-05-27T23:31:26.685,579632,0.79,-0.17,-0.33,-18.3,19.5,-6.7,-5.7,16.0,25.9,101.124,35.28,0,0,0,0,0,NONE,66,172
2026-05-27T23:31:26.733,579680,0.85,-0.4,-0.46,-35.6,22.4,-8.4,-5.6,17.4,26.6,101.123,35.28,0,0,0,0,0,NONE,38,173
2026-05-27T23:31:26.777,579728,1.02,-0.27,-0.45,-23.4,13.6,-0.4,-5.6,18.2,26.7,101.123,35.29,0,1,0,0,1,NONE,41,170
2026-05-27T23:31:26.841,579780,1.0,-0.28,-0.32,9.7,1.3,4.2,-6.0,18.4,26.0,101.126,35.29,0,1,0,0,1,NONE,68,327
2026-05-27T23:31:26.889,579832,0.91,-0.29,-0.32,-7.9,6.2,2.1,-6.3,18.7,26.7,101.124,35.29,0,0,0,0,0,NONE,30,132
2026-05-27T23:31:26.937,579878,0.87,-0.36,-0.37,-8.6,10.7,2.0,-6.6,18.9,26.8,101.124,35.29,0,0,0,0,0,NONE,37,147
2026-05-27T23:31:26.985,579930,0.9,-0.28,-0.33,-8.6,15.7,5.6,-6.8,19.3,27.5,101.124,35.29,0,1,0,0,1,NONE,39,184
2026-05-27T23:31:27.039,579978,0.86,-0.28,-0.23,1.2,8.5,11.5,-7.3,19.5,27.2,101.122,35.3,0,1,0,0,1,NONE,75,583
2026-05-27T23:31:27.089,580030,0.92,-0.27,-0.23,-4.5,6.7,15.9,-7.4,19.2,28.1,101.123,35.3,0,1,0,0,1,NONE,80,511
2026-05-27T23:31:27.140,580082,0.9,-0.17,-0.2,12.9,-11.5,18.3,-7.9,18.9,28.9,101.124,35.3,0,1,0,0,1,NONE,50,319
2026-05-27T23:31:27.176,580130,0.84,-0.25,-0.15,29.4,-26.6,25.6,-6.7,18.6,28.2,101.13,35.3,0,1,0,0,1,NONE,34,185
2026-05-27T23:31:27.224,580178,0.96,-0.49,-0.32,20.3,-7.4,24.4,-6.2,17.6,27.9,101.12,35.3,0,1,0,0,1,NONE,26,175
2026-05-27T23:31:27.288,580230,0.96,-0.27,-0.46,-37.0,-2.8,25.0,-6.8,17.9,25.7,101.122,35.31,0,1,0,0,1,NONE,32,191
2026-05-27T23:31:27.338,580280,0.94,0.02,-0.35,-0.2,-11.2,18.6,-7.0,19.1,26.6,101.122,35.31,0,1,0,0,1,NONE,32,157
2026-05-27T23:31:27.390,580328,0.78,-0.14,-0.32,9.2,-4.5,9.2,-6.3,18.2,28.1,101.121,35.31,0,1,0,0,1,NONE,26,139
2026-05-27T23:31:27.436,580380,1.05,-0.09,-0.35,9.4,4.0,8.2,-6.6,17.8,27.1,101.122,35.31,0,1,0,0,1,NONE,91,527
2026-05-27T23:31:27.483,580432,1.0,-0.15,-0.28,-22.0,4.1,3.7,-6.4,18.5,26.3,101.123,35.32,0,1,0,0,1,NONE,61,399
2026-05-27T23:31:27.532,580478,0.91,-0.14,-0.27,-39.7,2.5,5.9,-6.7,19.5,28.4,101.123,35.31,0,1,0,0,1,NONE,27,176
2026-05-27T23:31:27.585,580530,0.96,-0.1,-0.25,-37.4,6.5,4.8,-6.6,20.8,28.1,101.124,35.32,0,1,0,0,1,NONE,55,288
2026-05-27T23:31:27.638,580578,0.92,-0.1,-0.26,-38.4,12.9,9.5,-7.2,22.4,29.1,101.124,35.31,0,1,0,0,1,NONE,56,328
2026-05-27T23:31:27.690,580630,0.9,-0.13,-0.26,-50.6,18.2,6.9,-7.9,23.3,29.6,101.123,35.31,0,1,0,0,1,NONE,86,403
2026-05-27T23:31:27.737,580682,0.97,-0.17,-0.23,-41.8,19.1,8.0,-8.1,25.3,29.4,101.123,35.32,0,1,0,0,1,NONE,61,349
2026-05-27T23:31:27.785,580730,0.91,-0.27,-0.15,-65.6,10.3,3.0,-8.3,27.0,28.7,101.124,35.31,0,1,0,0,1,NONE,46,279
2026-05-27T23:31:27.834,580778,0.87,-0.33,-0.22,-93.4,15.4,-3.1,-9.0,28.9,29.7,101.124,35.31,0,1,0,0,1,NONE,111,569
2026-05-27T23:31:27.880,580830,0.83,-0.25,-0.45,-100.2,28.9,-5.4,-9.1,32.8,30.4,101.123,35.32,0,1,0,1,2,NONE,80,472
2026-05-27T23:31:27.930,580880,0.83,-0.14,-0.37,-90.7,32.3,-14.3,-10.3,35.3,29.8,101.123,35.31,0,1,0,1,2,NONE,127,790
2026-05-27T23:31:27.976,580928,0.85,-0.25,-0.28,-80.0,29.4,6.0,-11.5,38.6,29.3,101.121,35.31,0,1,0,0,1,NONE,111,698
2026-05-27T23:31:28.038,580980,1.16,-0.38,-0.38,-65.8,26.2,9.6,-11.9,41.0,27.7,101.122,35.32,0,1,0,0,1,NONE,88,575
2026-05-27T23:31:28.090,581032,1.03,-0.43,-0.24,-62.6,10.1,12.9,-12.3,42.7,28.7,101.122,35.32,0,1,0,0,1,NONE,122,657
2026-05-27T23:31:28.134,581078,0.86,-0.43,-0.21,-77.3,9.3,10.4,-13.5,44.8,27.3,101.125,35.32,0,1,0,0,1,NONE,146,811
2026-05-27T23:31:28.182,581130,0.81,-0.4,-0.16,-82.5,19.9,13.8,-13.2,47.2,24.9,101.126,35.32,0,1,0,1,2,NONE,112,640
2026-05-27T23:31:28.234,581178,0.8,-0.32,-0.19,-76.7,22.9,20.9,-13.6,49.8,24.4,101.129,35.32,0,1,0,1,2,NONE,87,586
2026-05-27T23:31:28.278,581230,0.86,-0.37,-0.16,-63.5,23.3,29.2,-14.1,51.4,23.1,101.122,35.32,0,1,0,1,2,NONE,83,492
2026-05-27T23:31:28.340,581282,0.87,-0.4,-0.11,-65.4,22.2,34.8,-14.5,52.5,21.1,101.122,35.31,0,1,0,1,2,NONE,103,597
2026-05-27T23:31:28.374,581330,0.86,-0.33,-0.09,-61.9,14.2,35.8,-14.0,54.0,19.9,101.125,35.32,0,1,0,1,2,NONE,64,436
2026-05-27T23:31:28.422,581378,0.97,-0.38,-0.22,-70.3,22.8,30.3,-13.5,55.1,18.9,101.124,35.32,0,1,0,1,2,NONE,51,300
2026-05-27T23:31:28.487,581430,0.89,-0.31,-0.26,-54.9,12.8,27.6,-13.2,56.7,18.0,101.125,35.32,0,1,0,1,2,NONE,39,253
2026-05-27T23:31:28.538,581480,0.97,-0.3,-0.23,-67.0,14.8,21.6,-12.5,57.2,16.6,101.128,35.33,0,1,0,1,2,NONE,39,212
2026-05-27T23:31:28.583,581528,0.8,-0.17,-0.22,-49.3,9.6,24.0,-11.9,58.2,14.7,101.127,35.33,0,1,0,1,2,NONE,41,235
2026-05-27T23:31:28.635,581580,0.89,-0.15,-0.36,-38.8,19.2,22.8,-11.5,58.5,11.7,101.123,35.32,0,1,0,1,2,NONE,49,197
2026-05-27T23:31:28.683,581632,1.15,-0.21,-0.31,-69.9,26.3,14.9,-10.7,59.6,10.7,101.123,35.32,0,1,0,1,2,NONE,85,449
2026-05-27T23:31:28.732,581678,1.02,-0.05,-0.24,-52.8,17.2,18.0,-11.6,59.8,8.6,101.123,35.33,0,1,0,1,2,NONE,95,605
2026-05-27T23:31:28.787,581730,0.95,-0.13,-0.2,-31.7,18.6,19.1,-10.7,60.3,7.9,101.122,35.33,0,1,1,1,3,NONE,85,494
2026-05-27T23:31:28.824,581778,0.86,-0.25,-0.2,-55.8,28.1,0.1,-10.7,60.8,7.1,101.123,35.32,0,1,1,1,3,NONE,102,630
2026-05-27T23:31:28.889,581830,1.0,-0.13,-0.24,-42.1,25.2,14.6,-10.8,61.0,4.6,101.123,35.33,0,1,0,1,2,NONE,89,486
2026-05-27T23:31:28.943,581882,0.96,-0.14,-0.14,-30.5,12.0,13.6,-10.5,61.6,3.1,101.123,35.34,0,1,0,1,2,NONE,96,467
2026-05-27T23:31:28.986,581930,0.97,-0.31,-0.11,-44.8,9.1,5.6,-10.4,61.6,2.1,101.125,35.33,0,1,0,1,2,NONE,100,542
2026-05-27T23:31:29.032,581981,0.82,-0.42,-0.15,-91.3,-1.5,-7.5,-10.5,61.0,0.4,101.129,35.33,0,1,0,1,2,NONE,100,663
2026-05-27T23:31:29.084,582030,0.85,-0.1,-0.33,-56.7,-8.4,-0.8,-10.5,61.1,-2.6,101.125,35.33,0,1,0,1,2,NONE,80,449
2026-05-27T23:31:29.131,582078,0.89,-0.08,-0.35,-24.4,7.0,5.2,-10.7,61.2,-2.9,101.122,35.33,0,1,0,1,2,NONE,79,491
2026-05-27T23:31:29.177,582130,0.88,-0.35,-0.22,-34.1,9.0,11.7,-10.6,61.2,-3.8,101.127,35.33,0,1,0,1,2,NONE,70,348
2026-05-27T23:31:29.233,582180,1.03,-0.52,-0.3,-80.4,24.2,1.6,-9.3,60.9,-5.6,101.124,35.33,0,1,0,1,2,NONE,48,268
2026-05-27T23:31:29.277,582228,1.0,-0.24,-0.19,-61.9,19.1,12.3,-10.0,60.3,-7.8,101.125,35.33,0,1,0,0,1,NONE,61,349
2026-05-27T23:31:29.339,582280,0.97,-0.12,-0.07,-47.4,12.9,13.3,-9.4,60.0,-9.3,101.125,35.32,0,1,0,0,1,NONE,97,572
2026-05-27T23:31:29.389,582332,0.91,-0.24,-0.11,-37.8,22.0,7.6,-9.2,59.2,-10.4,101.12,35.34,0,1,0,0,1,NONE,37,215
2026-05-27T23:31:29.437,582378,0.89,-0.26,-0.14,-30.9,17.9,6.2,-8.2,58.6,-12.8,101.12,35.33,0,1,0,0,1,NONE,51,248
2026-05-27T23:31:29.483,582430,0.91,-0.3,-0.08,-53.2,16.5,5.1,-8.0,58.6,-13.9,101.121,35.33,0,1,0,1,2,NONE,67,317
2026-05-27T23:31:29.531,582478,0.91,-0.23,-0.12,-43.0,10.9,4.9,-8.2,57.6,-15.6,101.123,35.32,0,1,0,1,2,NONE,69,357
2026-05-27T23:31:29.581,582530,0.94,-0.27,-0.14,-28.3,8.6,6.5,-7.9,56.7,-15.0,101.123,35.33,0,1,0,0,1,NONE,71,349
2026-05-27T23:31:29.640,582582,0.89,-0.32,-0.07,-17.2,6.9,9.7,-7.4,56.6,-14.8,101.123,35.34,0,1,0,0,1,NONE,33,197
2026-05-27T23:31:29.688,582630,0.88,-0.33,-0.07,-8.9,8.4,9.8,-7.4,55.8,-16.2,101.126,35.33,0,1,0,0,1,NONE,46,231
2026-05-27T23:31:29.737,582678,0.9,-0.47,-0.08,-17.1,17.7,10.7,-6.8,55.7,-17.5,101.124,35.33,0,1,0,0,1,NONE,116,595
2026-05-27T23:31:29.787,582730,0.98,-0.31,-0.33,-8.5,25.3,17.0,-6.9,54.9,-17.8,101.122,35.32,0,1,0,1,2,NONE,57,248
2026-05-27T23:31:29.836,582780,1.12,-0.08,-0.21,-1.8,15.6,22.7,-5.7,55.0,-17.9,101.124,35.33,0,1,0,1,2,NONE,78,391
2026-05-27T23:31:29.888,582829,0.95,-0.14,-0.13,37.4,-8.1,26.3,-5.2,54.1,-16.9,101.123,35.32,0,1,0,1,2,NONE,77,362
2026-05-27T23:31:29.926,582880,0.78,-0.28,-0.27,13.4,11.2,22.8,-5.2,55.1,-17.6,101.121,35.34,0,1,0,1,2,NONE,49,215
2026-05-27T23:31:29.990,582932,1.02,-0.13,-0.39,17.6,9.7,18.9,-4.6,55.3,-15.6,101.123,35.33,0,1,0,0,1,NONE,54,201
2026-05-27T23:31:30.021,582978,1.04,-0.17,-0.3,-1.6,5.2,16.7,-4.3,54.8,-16.5,101.124,35.33,0,1,0,0,1,NONE,35,177
2026-05-27T23:31:30.088,583029,1.1,-0.02,-0.37,-4.5,0.9,13.5,-4.3,54.8,-16.5,101.119,35.33,0,1,0,0,1,NONE,41,167
2026-05-27T23:31:30.132,583078,0.91,-0.05,-0.24,2.0,-3.5,13.7,-3.2,54.7,-15.9,101.12,35.33,0,1,0,0,1,NONE,50,224
2026-05-27T23:31:30.179,583130,0.93,-0.1,-0.26,-2.4,4.9,10.3,-2.9,54.2,-14.8,101.124,35.33,0,1,0,1,2,NONE,37,185
2026-05-27T23:31:30.228,583182,0.9,-0.09,-0.21,-6.6,1.6,11.0,-2.6,53.8,-16.4,101.121,35.33,0,1,0,1,2,NONE,40,176
2026-05-27T23:31:30.276,583230,0.91,-0.06,-0.22,-17.6,6.0,9.2,-2.5,53.7,-16.7,101.121,35.33,0,1,0,0,1,NONE,48,214
2026-05-27T23:31:30.328,583278,0.88,-0.0,-0.23,-18.0,11.8,6.2,-2.4,53.0,-17.9,101.12,35.32,0,1,0,0,1,NONE,43,241
2026-05-27T23:31:30.388,583330,0.85,0.1,-0.28,3.4,10.5,4.6,-2.5,52.6,-17.9,101.121,35.33,0,1,0,0,1,NONE,42,202
2026-05-27T23:31:30.438,583380,0.97,-0.03,-0.21,20.5,12.1,0.3,-2.8,53.0,-16.7,101.125,35.34,0,1,0,0,1,NONE,46,150
2026-05-27T23:31:30.486,583429,1.01,-0.15,-0.24,6.5,18.1,-6.5,-2.3,53.1,-17.2,101.124,35.33,0,1,0,0,1,NONE,51,251
2026-05-27T23:31:30.534,583480,0.98,-0.18,-0.15,-12.3,2.6,-10.6,-2.4,53.9,-16.5,101.125,35.33,0,1,0,0,1,NONE,54,236
2026-05-27T23:31:30.584,583532,0.97,-0.05,-0.14,0.4,-5.0,-11.5,-2.7,53.8,-17.3,101.123,35.33,0,1,0,0,1,NONE,43,156
2026-05-27T23:31:30.629,583578,1.03,-0.1,-0.3,-3.7,0.1,-10.1,-2.8,53.6,-16.9,101.125,35.33,0,1,0,0,1,NONE,49,238
2026-05-27T23:31:30.678,583631,0.91,-0.18,-0.2,-0.9,-6.5,-14.3,-3.4,53.7,-19.7,101.124,35.33,0,1,0,0,1,NONE,50,299
2026-05-27T23:31:30.726,583678,0.86,-0.22,-0.33,-19.3,5.9,-14.5,-4.3,53.9,-18.8,101.121,35.33,0,1,0,0,1,NONE,52,199
2026-05-27T23:31:30.790,583731,0.86,-0.14,-0.29,-14.6,2.5,-7.9,-4.5,53.2,-20.0,101.122,35.33,0,1,0,0,1,NONE,35,197
2026-05-27T23:31:30.838,583782,0.86,-0.33,-0.36,-36.3,12.7,-8.4,-4.6,53.5,-19.2,101.12,35.33,0,1,0,0,1,NONE,44,183
2026-05-27T23:31:30.886,583830,1.08,-0.21,-0.26,-18.9,7.1,0.0,-4.3,52.8,-19.2,101.121,35.32,0,1,0,0,1,NONE,28,145
2026-05-27T23:31:30.937,583878,1.02,-0.22,-0.21,-2.9,0.5,-1.5,-4.7,53.1,-20.3,101.12,35.33,0,1,0,0,1,NONE,65,147
2026-05-27T23:31:30.989,583931,0.9,-0.28,-0.19,-6.2,4.6,-1.7,-5.0,52.2,-20.7,101.121,35.33,0,1,0,0,1,NONE,43,236
2026-05-27T23:31:31.028,583980,0.89,-0.32,-0.19,-16.0,16.2,-1.8,-5.4,51.5,-20.7,101.119,35.33,0,1,0,0,1,NONE,49,338
2026-05-27T23:31:31.081,584029,0.87,-0.28,-0.24,-10.4,25.5,5.1,-4.1,51.7,-20.7,101.121,35.33,0,1,0,0,1,NONE,57,230
2026-05-27T23:31:31.126,584080,0.85,-0.15,-0.19,-2.1,19.7,12.9,-3.5,51.3,-19.6,101.123,35.33,0,1,0,0,1,NONE,70,217
2026-05-27T23:31:31.188,584132,0.94,-0.24,-0.19,4.1,18.4,13.2,-3.1,51.2,-20.5,101.121,35.33,0,1,0,0,1,NONE,60,179
2026-05-27T23:31:31.236,584178,0.96,-0.2,-0.14,16.8,12.0,18.7,-2.9,51.0,-19.3,101.125,35.33,0,1,0,0,1,NONE,35,210
2026-05-27T23:31:31.285,584230,1.03,-0.25,-0.34,20.5,17.5,16.7,-2.1,51.3,-19.6,101.121,35.33,0,1,0,0,1,NONE,36,163
2026-05-27T23:31:31.333,584278,0.93,-0.16,-0.33,18.2,11.1,22.8,-2.0,50.9,-19.8,101.121,35.33,0,1,0,0,1,NONE,34,116
2026-05-27T23:31:31.382,584330,0.93,-0.2,-0.33,20.3,6.0,18.2,-1.3,51.0,-18.7,101.12,35.33,0,1,0,0,1,NONE,32,156
2026-05-27T23:31:31.437,584380,0.88,-0.13,-0.38,9.5,6.8,13.5,-1.7,51.6,-17.7,101.126,35.34,0,1,0,0,1,NONE,31,171
2026-05-27T23:31:31.483,584429,0.94,-0.0,-0.4,33.1,-1.3,12.8,-1.1,51.4,-18.9,101.122,35.34,0,1,0,0,1,NONE,58,314
2026-05-27T23:31:31.529,584480,0.97,-0.09,-0.37,17.7,2.0,6.1,-0.5,51.8,-18.5,101.124,35.33,0,1,0,0,1,NONE,47,227
2026-05-27T23:31:31.590,584532,1.02,-0.03,-0.39,16.2,-1.0,4.5,-0.9,52.3,-16.0,101.124,35.33,0,1,0,0,1,NONE,31,163
2026-05-27T23:31:31.632,584578,0.98,0.0,-0.37,18.1,-4.3,2.9,-0.6,51.7,-18.4,101.121,35.33,0,1,0,0,1,NONE,34,248
2026-05-27T23:31:31.691,584632,0.91,-0.03,-0.34,23.5,1.7,-0.5,-0.6,53.0,-16.8,101.122,35.33,0,1,0,0,1,NONE,38,212
2026-05-27T23:31:31.738,584678,0.95,-0.06,-0.36,9.8,7.3,-2.6,-0.9,52.6,-16.7,101.125,35.33,0,1,0,0,1,NONE,32,179
2026-05-27T23:31:31.783,584730,0.88,-0.03,-0.33,7.9,6.4,-5.6,-0.8,53.3,-15.5,101.12,35.33,0,1,0,0,1,NONE,28,205
2026-05-27T23:31:31.840,584782,0.89,-0.03,-0.29,10.1,7.0,-8.7,-1.4,53.1,-16.2,101.121,35.33,0,1,0,0,1,NONE,27,156
2026-05-27T23:31:31.884,584830,0.91,-0.04,-0.27,14.9,7.6,-7.1,-1.3,53.5,-16.9,101.125,35.34,0,1,0,0,1,NONE,23,134
2026-05-27T23:31:31.928,584878,0.93,-0.09,-0.29,12.0,9.6,-6.3,-2.2,53.3,-15.9,101.118,35.33,0,1,0,0,1,NONE,87,254
2026-05-27T23:31:31.991,584930,0.92,-0.17,-0.19,-17.6,-1.1,-8.5,-2.1,53.9,-14.8,101.123,35.33,0,1,0,0,1,NONE,45,257
2026-05-27T23:31:32.038,584980,0.91,-0.19,-0.2,-47.4,-2.2,-11.5,-2.4,53.3,-16.7,101.122,35.33,0,1,0,0,1,NONE,55,179
2026-05-27T23:31:32.086,585029,0.86,-0.11,-0.37,-35.9,0.5,-9.8,-2.5,53.0,-17.5,101.121,35.33,0,1,0,0,1,NONE,34,184
2026-05-27T23:31:32.137,585080,0.69,-0.16,-0.37,-49.1,7.2,-3.3,-2.7,52.0,-19.2,101.121,35.32,0,1,0,0,1,NONE,34,214
2026-05-27T23:31:32.185,585132,0.99,-0.31,-0.4,-49.1,17.8,-7.5,-3.0,51.4,-18.8,101.124,35.33,0,1,0,0,1,NONE,45,234
2026-05-27T23:31:32.234,585178,0.93,-0.35,-0.54,-78.5,19.3,-1.6,-3.0,50.2,-21.7,101.125,35.33,0,1,0,0,1,NONE,39,180
2026-05-27T23:31:32.285,585230,1.04,-0.27,-0.39,-47.4,13.3,9.9,-2.3,48.7,-22.7,101.125,35.32,0,1,0,0,1,NONE,36,150
2026-05-27T23:31:32.329,585278,0.96,-0.37,-0.22,-53.7,2.6,12.6,-1.6,47.5,-22.7,101.126,35.33,0,1,0,0,1,NONE,29,134
2026-05-27T23:31:32.385,585330,0.89,-0.41,-0.25,-86.7,13.9,10.4,-2.1,45.7,-24.5,101.128,35.33,0,1,0,0,1,NONE,32,111
2026-05-27T23:31:32.440,585382,0.88,-0.31,-0.3,-75.3,18.4,18.9,-1.0,43.1,-24.1,101.121,35.33,0,1,0,0,1,NONE,89,413
2026-05-27T23:31:32.489,585430,0.84,-0.35,-0.3,-75.8,13.5,20.1,-0.7,41.5,-26.9,101.122,35.32,0,0,0,0,0,NONE,87,421
2026-05-27T23:31:32.539,585481,0.84,-0.37,-0.25,-78.2,18.0,24.4,0.3,39.5,-26.3,101.125,35.33,0,0,0,0,0,NONE,63,335
2026-05-27T23:31:32.587,585528,0.89,-0.29,-0.22,-70.7,14.3,26.6,1.2,37.1,-27.2,101.124,35.33,0,0,0,0,0,NONE,59,180
2026-05-27T23:31:32.638,585582,0.85,-0.35,-0.21,-56.0,10.4,29.0,2.1,34.7,-28.0,101.123,35.33,0,0,0,0,0,NONE,73,228
2026-05-27T23:31:32.686,585628,0.88,-0.36,-0.23,-46.9,13.3,28.7,1.7,32.8,-26.4,101.124,35.32,0,0,0,0,0,NONE,62,313
2026-05-27T23:31:32.732,585678,0.96,-0.35,-0.31,-47.7,16.0,32.5,2.6,31.2,-27.1,101.124,35.33,0,0,0,0,0,NONE,52,224
2026-05-27T23:31:32.787,585728,0.86,-0.18,-0.26,-37.4,3.7,30.2,2.5,28.5,-26.6,101.122,35.33,0,0,0,0,0,NONE,21,96
2026-05-27T23:31:32.827,585780,0.8,-0.17,-0.15,-26.1,-5.2,25.1,2.7,27.0,-28.0,101.122,35.33,0,0,0,0,0,NONE,35,145
2026-05-27T23:31:32.887,585829,0.8,-0.2,-0.23,-20.4,1.3,26.1,2.4,26.1,-27.5,101.124,35.33,0,0,0,0,0,NONE,36,180
2026-05-27T23:31:32.941,585880,1.19,-0.05,-0.32,-18.4,1.3,19.7,2.5,24.5,-27.3,101.125,35.32,0,0,0,0,0,NONE,43,215
2026-05-27T23:31:32.987,585932,1.05,-0.17,-0.28,-59.8,8.1,9.0,2.5,24.1,-25.9,101.123,35.33,0,0,0,0,0,NONE,37,199
2026-05-27T23:31:33.031,585978,1.01,-0.06,-0.2,-52.5,5.5,16.5,2.7,22.1,-26.1,101.121,35.33,0,0,0,0,0,NONE,39,198
2026-05-27T23:31:33.088,586031,0.92,-0.12,-0.12,-27.0,3.0,18.4,2.2,20.8,-25.7,101.124,35.33,0,0,0,0,0,NONE,51,185
2026-05-27T23:31:33.130,586078,0.95,-0.16,-0.26,-55.5,22.7,15.1,2.5,19.3,-26.1,101.122,35.33,0,0,0,0,0,NONE,49,206
2026-05-27T23:31:33.188,586131,0.92,-0.18,-0.23,-63.5,15.5,12.9,3.0,17.7,-23.8,101.128,35.33,0,0,0,0,0,NONE,66,210
2026-05-27T23:31:33.235,586180,0.93,-0.06,-0.19,-58.2,21.2,12.6,2.6,15.9,-23.2,101.123,35.33,0,0,0,0,0,NONE,31,144
2026-05-27T23:31:33.287,586228,0.94,-0.12,-0.25,-64.7,18.5,11.2,3.2,14.6,-21.9,101.122,35.32,0,0,0,0,0,NONE,60,201
2026-05-27T23:31:33.339,586280,0.99,-0.15,-0.2,-60.8,22.2,11.0,3.3,13.3,-20.6,101.123,35.33,0,0,0,0,0,NONE,70,258
2026-05-27T23:31:33.388,586332,0.95,-0.1,-0.17,-59.8,16.4,11.4,3.7,11.6,-18.4,101.122,35.33,0,0,0,0,0,NONE,89,312
2026-05-27T23:31:33.436,586378,0.94,-0.15,-0.16,-55.1,18.4,10.3,4.0,10.6,-16.5,101.124,35.33,0,0,0,0,0,NONE,23,114
2026-05-27T23:31:33.489,586430,0.93,-0.28,-0.12,-72.5,16.2,9.6,4.0,10.0,-16.4,101.12,35.32,0,0,0,0,0,NONE,64,234
2026-05-27T23:31:33.534,586478,0.92,-0.22,-0.11,-86.1,10.8,8.4,4.1,8.7,-13.8,101.123,35.33,0,0,0,0,0,NONE,51,167
2026-05-27T23:31:33.589,586530,0.99,-0.1,-0.25,-84.5,22.2,5.3,4.0,7.2,-11.7,101.125,35.33,0,0,0,0,0,NONE,46,292
2026-05-27T23:31:33.639,586581,0.96,0.13,-0.38,-44.6,10.9,11.7,4.1,5.4,-7.6,101.124,35.32,0,0,0,0,0,NONE,52,214
2026-05-27T23:31:33.688,586630,1.02,-0.26,-0.17,-30.4,12.5,12.5,4.9,4.9,-5.9,101.121,35.32,0,0,0,0,0,NONE,26,139
2026-05-27T23:31:33.736,586678,0.79,-0.34,-0.28,-78.1,23.9,0.5,4.4,4.4,-3.1,101.122,35.33,0,0,0,0,0,NONE,57,240
2026-05-27T23:31:33.784,586730,0.83,-0.27,-0.35,-92.7,30.5,-1.8,4.5,4.9,-0.6,101.125,35.33,0,0,0,0,0,NONE,58,281
2026-05-27T23:31:33.838,586780,0.93,-0.32,-0.35,-86.4,35.9,-0.6,4.2,5.1,2.7,101.12,35.32,0,0,0,0,0,NONE,42,179
2026-05-27T23:31:33.883,586828,1.09,-0.25,-0.29,-62.3,25.0,6.2,4.3,5.3,5.0,101.123,35.33,0,0,0,0,0,NONE,55,189
2026-05-27T23:31:33.929,586880,0.97,-0.34,-0.22,-35.8,14.1,11.2,4.0,6.0,5.5,101.121,35.33,0,0,0,0,0,NONE,48,200
2026-05-27T23:31:33.990,586932,0.85,-0.41,-0.24,-62.1,18.7,5.4,3.9,6.4,6.6,101.121,35.32,0,1,0,0,1,NONE,46,202
2026-05-27T23:31:34.026,586978,0.82,-0.3,-0.24,-54.0,20.1,9.9,3.6,6.3,10.3,101.122,35.33,0,1,0,0,1,NONE,58,231
2026-05-27T23:31:34.089,587030,0.88,-0.28,-0.25,-56.5,24.8,12.9,3.3,7.5,12.6,101.12,35.33,0,0,0,0,0,NONE,46,170
2026-05-27T23:31:34.133,587078,0.87,-0.31,-0.25,-48.6,23.1,15.7,2.7,7.4,13.4,101.126,35.33,0,0,0,0,0,NONE,49,155
2026-05-27T23:31:34.187,587130,0.93,-0.28,-0.22,-40.3,23.2,21.9,2.0,7.8,14.4,101.123,35.33,0,0,0,0,0,NONE,55,270
2026-05-27T23:31:34.240,587182,0.99,-0.23,-0.2,-16.5,11.9,22.9,0.8,8.6,15.5,101.126,35.33,0,0,0,0,0,NONE,44,252
2026-05-27T23:31:34.278,587230,0.9,-0.27,-0.06,-2.5,6.2,23.1,-0.1,8.0,16.3,101.123,35.33,0,1,0,0,1,NONE,43,237
2026-05-27T23:31:34.325,587278,0.99,-0.37,-0.21,-12.5,14.1,18.6,-0.4,8.2,17.4,101.124,35.33,0,1,0,0,1,NONE,44,242
2026-05-27T23:31:34.389,587330,0.93,-0.26,-0.31,-27.5,10.9,20.9,-0.8,8.1,17.4,101.126,35.33,0,1,0,0,1,NONE,45,201
2026-05-27T23:31:34.437,587378,0.97,-0.16,-0.3,-1.8,0.9,23.0,-0.9,8.1,18.4,101.123,35.33,0,1,0,0,1,NONE,46,229
2026-05-27T23:31:34.488,587430,0.97,-0.21,-0.26,4.6,-4.4,24.4,-2.1,8.1,18.4,101.123,35.33,0,1,0,0,1,NONE,36,210
2026-05-27T23:31:34.537,587480,0.9,-0.23,-0.32,0.4,-3.9,18.0,-2.1,8.0,18.2,101.118,35.34,0,1,0,0,1,NONE,44,214
2026-05-27T23:31:34.585,587528,0.93,-0.04,-0.39,13.2,-1.0,13.1,-2.3,7.9,17.9,101.121,35.33,0,0,0,0,0,NONE,45,218
2026-05-27T23:31:34.633,587580,0.9,-0.14,-0.3,5.1,-0.5,7.3,-2.7,8.1,17.8,101.124,35.33,0,0,0,0,0,NONE,46,229
2026-05-27T23:31:34.681,587632,0.96,-0.12,-0.24,-1.8,4.6,4.8,-2.7,7.6,16.3,101.119,35.32,0,1,0,0,1,NONE,46,233
2026-05-27T23:31:34.728,587678,0.93,-0.03,-0.27,2.3,-0.7,6.3,-2.8,7.7,16.7,101.122,35.33,0,1,0,0,1,NONE,44,216
2026-05-27T23:31:34.789,587730,0.97,-0.09,-0.17,18.4,-0.4,6.2,-2.9,7.9,17.6,101.124,35.33,0,1,0,0,1,NONE,36,190
2026-05-27T23:31:34.837,587778,0.91,-0.23,-0.27,-7.0,10.3,4.8,-3.0,7.9,17.4,101.124,35.32,0,1,0,0,1,NONE,64,233
2026-05-27T23:31:34.890,587830,0.94,-0.11,-0.21,-13.7,16.1,3.4,-3.5,8.0,17.1,101.12,35.33,0,1,0,0,1,NONE,48,237
2026-05-27T23:31:34.938,587882,0.9,-0.1,-0.19,-8.8,8.4,0.9,-3.7,8.3,18.5,101.119,35.33,0,1,0,0,1,NONE,44,225
2026-05-27T23:31:34.982,587930,0.95,-0.18,-0.14,-11.0,17.0,-3.7,-4.1,8.4,19.0,101.118,35.33,0,1,0,0,1,NONE,54,271
2026-05-27T23:31:35.034,587978,1.0,-0.21,-0.16,-16.9,6.3,-4.3,-3.7,8.9,18.6,101.123,35.32,0,1,0,0,1,NONE,39,189
2026-05-27T23:31:35.087,588030,0.81,-0.19,-0.15,-29.9,-3.0,-13.2,-3.4,9.9,19.1,101.119,35.33,0,1,0,0,1,NONE,63,247
2026-05-27T23:31:35.127,588080,0.9,-0.15,-0.37,-28.1,16.3,-14.5,-2.8,10.5,19.7,101.124,35.33,0,1,0,0,1,NONE,30,205
2026-05-27T23:31:35.183,588128,0.9,-0.03,-0.43,2.0,12.1,-15.2,-2.4,11.3,21.3,101.123,35.33,0,1,0,0,1,NONE,38,222
2026-05-27T23:31:35.239,588180,1.08,-0.3,-0.43,5.9,16.5,-0.9,-2.6,10.5,20.0,101.127,35.33,0,1,0,0,1,NONE,52,275
2026-05-27T23:31:35.289,588232,0.94,-0.41,-0.24,-30.8,-4.3,-4.4,-2.7,11.8,21.8,101.122,35.33,0,1,0,0,1,NONE,60,371
2026-05-27T23:31:35.336,588278,0.97,-0.36,-0.3,-45.3,7.4,-3.4,-2.9,12.9,22.3,101.124,35.34,0,1,0,0,1,NONE,66,352
2026-05-27T23:31:35.388,588330,0.96,-0.25,-0.3,-26.4,-3.7,1.2,-2.5,13.7,23.4,101.123,35.34,0,1,0,0,1,NONE,54,287
2026-05-27T23:31:35.436,588378,0.86,-0.31,-0.27,-20.6,0.2,2.4,-2.4,14.7,23.4,101.123,35.33,0,1,0,0,1,NONE,60,381
2026-05-27T23:31:35.482,588430,0.85,-0.3,-0.25,-15.1,2.2,1.5,-1.8,15.1,24.5,101.124,35.34,0,1,0,0,1,NONE,46,286
2026-05-27T23:31:35.531,588482,0.83,-0.34,-0.23,-16.7,7.0,3.9,-2.5,15.8,24.4,101.123,35.33,0,1,0,0,1,NONE,52,245
2026-05-27T23:31:35.576,588530,0.86,-0.3,-0.17,-14.2,10.9,7.1,-1.7,16.0,24.7,101.125,35.34,0,1,0,0,1,NONE,45,307
2026-05-27T23:31:35.628,588578,0.89,-0.29,-0.18,-7.3,11.5,13.7,-2.0,16.2,24.8,101.123,35.33,0,1,0,0,1,NONE,50,270
2026-05-27T23:31:35.689,588630,0.99,-0.25,-0.1,1.2,-0.1,14.3,-2.7,16.6,24.8,101.123,35.33,0,1,0,0,1,NONE,38,232
2026-05-27T23:31:35.738,588680,0.92,-0.32,-0.04,-0.4,-5.0,18.2,-3.3,16.6,24.6,101.124,35.32,0,1,0,0,1,NONE,49,286
2026-05-27T23:31:35.788,588729,1.0,-0.32,-0.16,10.9,3.7,14.3,-3.1,16.0,24.4,101.124,35.33,0,1,0,0,1,NONE,60,275
2026-05-27T23:31:35.836,588780,0.9,-0.23,-0.28,4.6,-4.5,17.0,-3.4,16.5,24.3,101.121,35.33,0,1,0,0,1,NONE,50,251
2026-05-27T23:31:35.880,588832,0.89,-0.09,-0.29,35.2,-5.2,18.1,-2.9,15.4,25.3,101.123,35.33,0,1,0,0,1,NONE,40,230
2026-05-27T23:31:35.928,588878,0.96,-0.21,-0.28,27.9,0.7,19.6,-3.1,15.1,23.7,101.124,35.33,0,1,0,0,1,NONE,43,219
2026-05-27T23:31:35.992,588930,0.96,-0.17,-0.37,26.7,1.4,11.1,-3.8,14.1,23.6,101.121,35.33,0,1,0,0,1,NONE,55,273
2026-05-27T23:31:36.030,588978,0.96,-0.02,-0.25,20.0,2.2,4.6,-3.6,12.9,23.4,101.124,35.33,0,1,0,0,1,NONE,55,325
2026-05-27T23:31:36.091,589030,1.0,-0.07,-0.22,39.2,-1.0,5.6,-3.9,12.7,23.1,101.124,35.33,0,1,0,0,1,NONE,50,310
2026-05-27T23:31:36.136,589082,1.07,-0.06,-0.19,35.2,-9.3,7.4,-4.3,12.3,22.1,101.123,35.33,0,1,0,0,1,NONE,34,170
2026-05-27T23:31:36.188,589130,0.9,-0.18,-0.18,15.2,-5.6,-2.4,-4.0,11.1,22.6,101.12,35.33,0,1,0,0,1,NONE,50,207
2026-05-27T23:31:36.232,589178,0.96,-0.04,-0.21,17.0,-5.5,0.7,-3.1,11.2,21.5,101.124,35.33,0,1,0,0,1,NONE,56,212
2026-05-27T23:31:36.284,589231,0.88,0.03,-0.18,33.8,-7.4,1.9,-2.7,10.7,21.1,101.127,35.33,0,1,0,0,1,NONE,80,291
2026-05-27T23:31:36.328,589280,0.86,-0.03,-0.2,27.6,-3.5,-3.4,-2.5,10.4,20.1,101.129,35.33,0,1,0,0,1,NONE,71,243
2026-05-27T23:31:36.376,589329,0.95,-0.07,-0.17,25.2,1.2,-8.4,-1.9,9.9,20.0,101.13,35.34,0,1,0,0,1,NONE,46,237
2026-05-27T23:31:36.426,589380,0.9,-0.03,-0.14,16.8,-4.9,-8.7,-1.6,9.7,19.5,101.126,35.34,0,1,0,0,1,NONE,120,365
2026-05-27T23:31:36.491,589432,0.94,-0.02,-0.13,22.5,-2.3,-9.5,-1.2,9.5,19.9,101.124,35.33,0,0,0,0,0,NONE,121,249
2026-05-27T23:31:36.537,589478,0.98,-0.07,-0.08,21.9,1.8,-9.1,-1.0,9.3,18.4,101.127,35.32,0,0,0,0,0,NONE,96,272
2026-05-27T23:31:36.585,589530,0.89,-0.13,-0.09,3.8,1.3,-9.8,-0.4,9.1,18.1,101.122,35.33,0,1,0,0,1,NONE,93,189
2026-05-27T23:31:36.639,589578,0.89,-0.11,-0.04,-3.8,0.7,-9.6,-0.1,8.8,16.8,101.124,35.33,0,1,0,0,1,NONE,99,128
2026-05-27T23:31:36.686,589630,1.78,0.1,-0.89,-11.1,60.9,7.9,0.5,9.5,18.2,101.122,35.33,0,1,0,0,1,NONE,56,280
2026-05-27T23:31:36.730,589682,0.64,-0.64,0.26,19.6,-57.4,-2.8,-0.0,9.7,19.3,101.122,35.33,0,1,0,0,1,NONE,130,309
2026-05-27T23:31:36.785,589730,1.04,-0.09,-0.43,-62.7,47.2,8.1,0.3,9.8,18.7,101.121,35.33,0,1,0,0,1,NONE,90,230
2026-05-27T23:31:36.831,589778,0.82,-0.29,-0.35,-4.9,4.6,-1.6,-0.2,11.3,20.2,101.122,35.32,0,1,0,0,1,NONE,109,149
2026-05-27T23:31:36.875,589830,0.91,-0.3,-0.19,-15.1,15.3,0.9,-0.1,12.2,20.6,101.123,35.33,0,1,0,0,1,NONE,91,194
2026-05-27T23:31:36.925,589880,0.88,-0.32,-0.27,-5.1,11.5,-2.9,0.3,11.8,22.9,101.121,35.32,0,1,0,0,1,NONE,82,253
2026-05-27T23:31:36.988,589928,0.91,-0.33,-0.21,-12.0,10.2,0.8,-0.4,11.9,22.6,101.123,35.32,0,1,0,0,1,NONE,73,202
2026-05-27T23:31:37.038,589980,0.93,-0.25,-0.21,-4.0,8.4,0.0,-0.3,12.3,22.4,101.124,35.33,0,1,0,0,1,NONE,54,193
2026-05-27T23:31:37.086,590032,0.87,-0.32,-0.19,-6.0,11.2,4.1,-0.4,12.8,23.8,101.124,35.33,0,1,0,0,1,NONE,52,229
2026-05-27T23:31:37.132,590078,0.92,-0.19,-0.19,0.5,13.5,6.3,-0.4,12.9,22.5,101.123,35.33,0,1,0,0,1,NONE,60,208
2026-05-27T23:31:37.180,590130,0.9,-0.29,-0.18,-8.6,16.8,7.4,-1.4,13.3,23.9,101.12,35.32,0,1,0,0,1,NONE,55,227
2026-05-27T23:31:37.228,590178,0.97,-0.18,-0.21,-7.6,15.7,9.3,-2.0,13.8,24.6,101.122,35.33,0,1,0,0,1,NONE,71,262
2026-05-27T23:31:37.280,590230,0.91,-0.21,-0.17,15.4,2.8,6.3,-2.0,13.4,23.5,101.119,35.34,0,1,0,0,1,NONE,57,202
2026-05-27T23:31:37.340,590282,0.97,-0.32,-0.17,0.9,7.3,6.3,-2.0,13.2,24.3,101.123,35.33,0,1,0,0,1,NONE,58,272
2026-05-27T23:31:37.388,590330,0.9,-0.23,-0.2,13.0,-1.3,13.3,-2.0,13.8,23.6,101.127,35.33,0,1,0,0,1,NONE,73,345
2026-05-27T23:31:37.436,590378,0.94,-0.23,-0.15,7.1,-5.7,17.9,-2.2,12.9,24.2,101.122,35.33,0,1,0,0,1,NONE,63,202
2026-05-27T23:31:37.483,590430,1.04,-0.65,-0.69,-22.8,35.6,5.2,-2.4,13.3,24.9,101.121,35.34,0,1,0,0,1,NONE,65,276
2026-05-27T23:31:37.532,590480,1.01,0.27,-0.19,-29.5,-16.5,21.3,-3.3,14.0,25.1,101.123,35.33,0,1,0,0,1,NONE,81,369
2026-05-27T23:31:37.580,590528,0.79,-0.26,-0.2,61.3,-9.9,16.0,-3.0,13.5,24.1,101.117,35.33,0,1,0,0,1,NONE,87,394
2026-05-27T23:31:37.634,590580,0.86,-0.17,-0.29,-10.6,-0.2,7.5,-2.5,12.1,23.8,101.12,35.33,0,1,0,0,1,NONE,92,321
2026-05-27T23:31:37.691,590632,0.94,-0.11,-0.25,-7.6,1.7,2.7,-3.2,13.5,24.2,101.121,35.33,0,1,0,0,1,NONE,53,314
2026-05-27T23:31:37.726,590678,0.97,-0.09,-0.26,-30.9,-2.2,4.9,-2.6,13.6,25.1,101.125,35.33,0,1,0,0,1,NONE,72,278
2026-05-27T23:31:37.789,590730,0.91,-0.14,-0.19,-14.1,-4.2,3.8,-3.1,14.4,25.4,101.123,35.33,0,1,0,0,1,NONE,45,260
2026-05-27T23:31:37.835,590778,0.96,-0.12,-0.19,-13.7,1.3,4.3,-2.9,14.7,24.3,101.121,35.33,0,1,0,0,1,NONE,76,284
2026-05-27T23:31:37.883,590830,0.9,-0.14,-0.17,-23.1,2.4,3.7,-2.5,15.4,25.6,101.124,35.34,0,1,0,0,1,NONE,65,193
2026-05-27T23:31:37.933,590882,0.93,-0.1,-0.17,-27.6,6.6,1.8,-2.8,16.3,26.1,101.124,35.33,0,1,0,0,1,NONE,69,224
2026-05-27T23:31:37.983,590930,0.95,-0.01,-0.19,-9.3,4.3,-0.9,-3.1,16.8,27.3,101.125,35.33,0,0,0,0,0,NONE,53,313
2026-05-27T23:31:38.032,590978,0.99,-0.18,-0.14,-16.9,7.4,-1.8,-2.9,17.2,27.6,101.122,35.32,0,0,0,0,0,NONE,50,264
2026-05-27T23:31:38.076,591030,0.93,-0.21,-0.17,-44.1,9.5,-3.2,-2.5,18.6,26.7,101.126,35.33,0,1,0,0,1,NONE,64,355
2026-05-27T23:31:38.128,591080,0.85,-0.25,-0.02,-65.2,8.9,-3.2,-3.1,20.4,27.7,101.126,35.34,0,1,0,0,1,NONE,68,259
2026-05-27T23:31:38.188,591128,1.3,-0.46,-0.5,-116.9,53.6,-12.1,-3.5,23.4,27.8,101.125,35.33,0,1,0,0,1,NONE,116,439
2026-05-27T23:31:38.238,591180,0.82,-0.26,-0.19,4.0,-12.2,17.9,-4.6,24.8,30.6,101.122,35.34,0,1,0,0,1,NONE,57,284
2026-05-27T23:31:38.287,591232,0.87,-0.25,-0.2,-95.2,23.6,5.3,-4.4,26.4,29.3,101.128,35.34,0,1,0,1,2,NONE,86,310
2026-05-27T23:31:38.332,591278,0.92,-0.44,-0.28,-71.5,25.9,-2.8,-5.3,29.5,30.9,101.124,35.33,0,1,0,1,2,NONE,84,310
2026-05-27T23:31:38.384,591330,0.9,-0.41,-0.24,-74.8,18.2,3.2,-6.3,32.0,30.9,101.123,35.33,0,1,0,1,2,NONE,106,502
2026-05-27T23:31:38.428,591378,0.86,-0.36,-0.22,-87.9,23.3,4.9,-6.8,34.8,30.9,101.125,35.33,0,1,0,1,2,NONE,79,594
2026-05-27T23:31:38.486,591430,0.91,-0.36,-0.22,-82.9,25.0,9.0,-7.5,37.0,30.6,101.126,35.33,0,1,0,0,1,NONE,97,476
2026-05-27T23:31:38.541,591481,0.92,-0.3,-0.25,-79.4,19.4,8.5,-9.1,40.7,30.3,101.124,35.34,0,1,0,0,1,NONE,97,356
2026-05-27T23:31:38.573,591530,0.89,-0.31,-0.2,-76.4,22.9,8.7,-8.7,43.0,29.0,101.123,35.33,0,1,1,1,3,NONE,92,326
2026-05-27T23:31:38.637,591578,0.86,-0.34,-0.22,-65.2,22.0,9.3,-9.7,45.0,28.1,101.122,35.34,0,1,1,1,3,NONE,84,289
2026-05-27T23:31:38.689,591630,0.87,-0.36,-0.18,-60.6,26.7,6.8,-10.5,46.5,27.9,101.123,35.34,0,1,1,1,3,NONE,54,276
2026-05-27T23:31:38.738,591680,0.86,-0.43,-0.17,-60.1,30.2,8.5,-10.8,48.3,25.6,101.124,35.33,0,1,1,1,3,NONE,33,159
2026-05-27T23:31:38.782,591728,0.89,-0.38,-0.17,-45.8,28.8,9.9,-11.7,50.4,26.0,101.122,35.33,0,1,0,1,2,NONE,57,198
2026-05-27T23:31:38.832,591780,0.85,-0.33,-0.18,-36.2,28.1,12.6,-12.5,50.9,23.7,101.121,35.34,0,1,0,1,2,NONE,42,222
2026-05-27T23:31:38.890,591832,0.92,-0.38,-0.12,-15.0,18.0,15.5,-12.4,51.9,23.0,101.121,35.33,0,1,0,1,2,NONE,39,277
2026-05-27T23:31:38.933,591878,0.86,-0.41,-0.23,-22.4,32.2,16.0,-13.2,52.1,23.1,101.12,35.34,0,1,0,1,2,NONE,37,165
2026-05-27T23:31:38.991,591932,1.02,-0.28,-0.31,-14.8,22.2,16.6,-14.3,52.7,22.5,101.123,35.33,0,1,0,0,1,NONE,44,156
2026-05-27T23:31:39.028,591978,0.96,-0.18,-0.18,20.3,11.3,14.3,-13.7,52.7,23.9,101.122,35.33,0,1,0,0,1,NONE,36,194
2026-05-27T23:31:39.092,592030,0.97,-0.31,-0.3,0.7,14.3,21.6,-14.0,52.8,23.2,101.124,35.34,0,1,0,1,2,NONE,63,403
2026-05-27T23:31:39.135,592081,0.87,-0.4,-0.32,14.6,3.5,32.5,-13.5,51.9,22.8,101.118,35.33,0,1,0,1,2,NONE,61,303
2026-05-27T23:31:39.188,592130,0.96,-0.11,-0.42,8.4,11.5,35.2,-12.5,51.8,24.1,101.124,35.34,0,1,0,1,2,NONE,77,438
2026-05-27T23:31:39.232,592178,0.93,-0.0,-0.39,12.3,-5.9,29.5,-12.0,51.5,23.7,101.125,35.33,0,1,0,1,2,NONE,53,280
2026-05-27T23:31:39.285,592230,1.11,-0.21,-0.3,-15.3,3.1,20.3,-11.7,51.4,23.3,101.124,35.34,0,1,0,0,1,NONE,65,195
2026-05-27T23:31:39.335,592280,0.88,-0.16,-0.26,-20.8,-10.2,20.9,-11.2,51.2,23.6,101.123,35.34,0,1,0,0,1,NONE,72,164
2026-05-27T23:31:39.377,592328,0.91,-0.06,-0.27,-15.7,-6.2,19.2,-11.0,51.6,22.4,101.126,35.33,0,1,0,1,2,NONE,49,166
2026-05-27T23:31:39.426,592380,0.87,-0.1,-0.21,-11.5,-4.9,15.7,-10.7,52.4,21.9,101.122,35.33,0,1,0,1,2,NONE,44,198
2026-05-27T23:31:39.490,592432,0.82,-0.06,-0.27,-19.7,-0.1,7.9,-9.4,52.2,20.8,101.121,35.34,0,1,0,0,1,NONE,35,203
2026-05-27T23:31:39.537,592478,0.93,-0.04,-0.27,-4.9,1.8,6.4,-10.2,52.7,20.6,101.122,35.34,0,1,0,0,1,NONE,39,202
2026-05-27T23:31:39.589,592532,0.88,-0.07,-0.2,-14.2,-1.7,0.9,-9.9,52.9,21.0,101.12,35.33,0,1,0,1,2,NONE,38,225
2026-05-27T23:31:39.633,592578,0.95,-0.09,-0.19,-7.0,12.9,-1.3,-9.5,53.1,20.4,101.119,35.32,0,1,0,1,2,NONE,34,225
2026-05-27T23:31:39.685,592630,1.06,-0.11,-0.1,11.5,0.2,-0.8,-10.1,53.4,20.3,101.123,35.33,0,1,0,1,2,NONE,50,230
2026-05-27T23:31:39.733,592682,0.94,-0.21,-0.1,-20.5,7.8,-4.8,-9.9,53.7,20.2,101.121,35.33,0,1,0,1,2,NONE,59,362
2026-05-27T23:31:39.789,592730,1.02,-0.27,-0.1,-41.5,-4.2,-7.0,-10.4,53.8,19.5,101.123,35.33,0,1,0,0,1,NONE,64,353
2026-05-27T23:31:39.825,592778,0.87,-0.11,-0.08,-36.6,-15.7,-7.1,-10.9,55.5,19.6,101.126,35.33,0,1,0,0,1,NONE,41,244
2026-05-27T23:31:39.889,592830,1.02,-0.02,-0.36,-18.6,-0.3,-6.6,-10.8,55.8,17.4,101.12,35.33,0,1,0,1,2,NONE,44,245
2026-05-27T23:31:39.937,592880,0.98,-0.15,-0.29,-5.6,-6.0,-9.2,-10.9,55.4,18.5,101.122,35.33,0,1,0,1,2,NONE,64,299
2026-05-27T23:31:39.986,592929,0.87,-0.31,-0.26,-17.5,3.2,-6.0,-10.1,55.9,17.4,101.121,35.33,0,1,0,1,2,NONE,52,309
2026-05-27T23:31:40.034,592980,0.96,-0.26,-0.3,-33.1,6.2,-2.0,-11.1,56.0,15.9,101.123,35.33,0,1,0,1,2,NONE,48,318
2026-05-27T23:31:40.083,593032,0.96,-0.24,-0.26,-28.4,9.5,1.3,-11.5,56.2,15.2,101.124,35.33,0,1,0,0,1,NONE,81,459
2026-05-27T23:31:40.133,593078,0.99,-0.23,-0.18,-12.5,2.7,4.2,-11.1,57.2,15.7,101.122,35.33,0,1,0,0,1,NONE,62,417
2026-05-27T23:31:40.181,593130,0.93,-0.26,-0.19,-24.0,3.7,3.0,-11.3,57.3,13.9,101.122,35.33,0,1,0,0,1,NONE,54,275
2026-05-27T23:31:40.229,593178,0.88,-0.21,-0.12,-22.3,5.2,4.6,-11.4,57.8,13.8,101.122,35.34,0,1,0,0,1,NONE,77,393
2026-05-27T23:31:40.289,593230,0.93,-0.31,-0.14,-37.7,16.9,6.4,-11.1,58.1,13.2,101.12,35.33,0,1,0,0,1,NONE,101,492
2026-05-27T23:31:40.340,593282,0.93,-0.16,-0.16,-7.3,16.2,10.4,-11.5,58.4,11.9,101.121,35.34,0,1,0,0,1,NONE,147,917
2026-05-27T23:31:40.387,593330,0.93,-0.19,-0.01,-16.2,9.2,9.4,-11.2,58.5,11.5,101.124,35.33,0,1,0,1,2,NONE,123,700
2026-05-27T23:31:40.437,593378,0.91,-0.3,-0.04,-19.0,0.9,12.1,-11.3,58.7,10.2,101.124,35.34,0,1,0,1,2,NONE,134,775
2026-05-27T23:31:40.487,593430,0.86,-0.37,-0.06,-26.1,2.9,23.2,-11.8,59.1,10.5,101.125,35.33,0,1,0,1,2,NONE,77,472
2026-05-27T23:31:40.538,593480,0.9,-0.15,-0.1,-32.9,-4.6,25.2,-10.6,59.2,9.7,101.124,35.33,0,1,0,1,2,NONE,160,970
2026-05-27T23:31:40.583,593529,0.9,-0.09,0.01,-1.6,-5.3,24.3,-10.2,59.4,7.9,101.12,35.33,0,1,0,1,2,NONE,111,851
2026-05-27T23:31:40.635,593580,1.02,-0.2,-0.13,-8.7,14.3,16.8,-9.3,59.2,6.9,101.124,35.33,0,1,0,1,2,NONE,131,774
2026-05-27T23:31:40.691,593632,1.21,-0.17,-0.36,0.5,21.4,6.3,-8.4,59.1,6.8,101.127,35.34,0,1,0,0,1,NONE,93,547
2026-05-27T23:31:40.727,593678,1.21,-0.24,-0.39,-55.8,9.5,-4.1,-8.7,61.8,6.5,101.123,35.33,0,1,0,0,1,NONE,54,306
2026-05-27T23:31:40.788,593729,0.71,-0.25,-0.2,-23.4,1.6,5.6,-8.7,61.8,6.5,101.123,35.33,0,1,0,1,2,NONE,38,206
2026-05-27T23:31:40.836,593778,0.96,-0.29,-0.39,-23.3,38.4,13.6,-9.8,59.7,6.0,101.122,35.33,0,1,0,1,2,NONE,47,225
2026-05-27T23:31:40.884,593831,1.03,-0.11,-0.21,-38.8,7.6,9.2,-9.0,59.9,4.7,101.124,35.33,0,1,0,0,1,NONE,38,237
2026-05-27T23:31:40.941,593882,0.99,-0.24,-0.25,-55.2,23.4,9.3,-9.2,60.4,2.5,101.124,35.34,0,1,0,0,1,NONE,58,229
2026-05-27T23:31:40.985,593930,0.89,-0.1,-0.19,-43.5,8.2,15.1,-9.1,60.2,2.5,101.121,35.33,0,1,0,1,2,NONE,35,217
2026-05-27T23:31:41.028,593978,0.9,-0.14,-0.2,-34.3,11.4,15.0,-8.6,60.2,0.7,101.122,35.33,0,1,0,1,2,NONE,109,799
2026-05-27T23:31:41.081,594030,0.91,-0.17,-0.24,-39.6,14.8,13.6,-8.5,60.9,-0.4,101.125,35.34,0,1,0,0,1,NONE,72,413
2026-05-27T23:31:41.129,594080,0.92,-0.18,-0.22,-49.0,16.7,11.6,-8.4,60.6,-1.8,101.122,35.33,0,1,0,0,1,NONE,43,278
2026-05-27T23:31:41.173,594128,0.96,-0.14,-0.22,-38.1,18.0,12.6,-7.5,60.5,-3.7,101.123,35.33,0,1,0,0,1,NONE,23,124
2026-05-27T23:31:41.239,594180,0.91,-0.18,-0.23,-47.6,21.7,11.8,-7.2,60.1,-4.0,101.123,35.33,0,1,0,0,1,NONE,93,530
2026-05-27T23:31:41.285,594232,0.97,-0.15,-0.19,-34.1,20.2,10.6,-6.4,59.9,-6.2,101.122,35.34,0,1,0,0,1,NONE,165,801
2026-05-27T23:31:41.332,594278,0.97,-0.2,-0.14,-43.6,11.5,5.1,-6.8,58.9,-6.9,101.124,35.33,0,1,0,0,1,NONE,87,574
2026-05-27T23:31:41.383,594330,0.94,-0.18,-0.14,-51.3,5.5,1.1,-7.0,58.5,-8.6,101.124,35.33,0,1,0,0,1,NONE,76,496
2026-05-27T23:31:41.429,594378,0.97,-0.21,-0.17,-51.1,-0.7,-0.2,-7.2,59.0,-9.4,101.122,35.33,0,1,0,0,1,NONE,108,622
2026-05-27T23:31:41.481,594430,1.15,-0.02,-0.42,-31.0,10.1,9.3,-6.4,57.8,-12.2,101.126,35.34,0,1,0,0,1,NONE,104,589
2026-05-27T23:31:41.541,594482,0.94,-0.33,-0.14,-33.4,-8.4,4.1,-6.6,58.0,-11.4,101.125,35.34,0,1,0,0,1,NONE,113,662
2026-05-27T23:31:41.589,594530,0.93,-0.17,-0.3,-64.6,7.9,-3.7,-6.6,57.2,-13.5,101.124,35.34,0,1,0,1,2,NONE,74,420
2026-05-27T23:31:41.637,594578,0.76,-0.24,-0.26,-50.0,9.7,-2.0,-6.7,56.4,-16.4,101.12,35.34,0,1,0,1,2,NONE,95,535
2026-05-27T23:31:41.689,594630,1.04,-0.22,-0.24,-39.7,11.4,1.2,-6.8,55.8,-16.8,101.121,35.34,0,1,0,1,2,NONE,75,463
2026-05-27T23:31:41.737,594680,0.94,-0.25,-0.18,-6.0,1.7,1.6,-5.9,54.8,-16.9,101.12,35.33,0,1,0,1,2,NONE,70,461
2026-05-27T23:31:41.787,594729,0.87,-0.34,-0.09,-39.4,-0.7,-5.2,-6.8,54.4,-18.0,101.122,35.33,0,1,0,1,2,NONE,127,802
2026-05-27T23:31:41.835,594780,0.92,-0.25,-0.15,-17.3,2.1,-3.6,-6.9,54.3,-19.3,101.123,35.33,0,1,0,1,2,NONE,37,235
2026-05-27T23:31:41.889,594832,0.93,-0.29,-0.17,-21.7,6.2,-0.6,-7.3,53.6,-20.0,101.12,35.34,0,1,0,0,1,NONE,85,560
2026-05-27T23:31:41.935,594878,0.88,-0.28,-0.12,-9.7,7.0,6.8,-6.7,53.6,-19.5,101.121,35.34,0,1,0,0,1,NONE,51,294
2026-05-27T23:31:41.979,594930,0.96,-0.22,-0.17,-2.4,9.4,8.9,-6.5,53.1,-19.8,101.121,35.33,0,1,0,0,1,NONE,129,705
2026-05-27T23:31:42.036,594978,0.89,-0.29,-0.12,4.2,14.4,6.0,-7.2,52.8,-20.0,101.125,35.33,0,1,0,0,1,NONE,81,441
2026-05-27T23:31:42.089,595030,0.92,-0.26,-0.1,12.2,14.0,10.4,-6.4,53.1,-19.8,101.123,35.33,0,1,0,1,2,NONE,127,730
2026-05-27T23:31:42.138,595082,0.9,-0.26,-0.08,13.1,14.8,13.2,-5.8,53.1,-19.7,101.121,35.34,0,1,0,1,2,NONE,140,816
2026-05-27T23:31:42.188,595130,0.94,-0.17,-0.16,40.3,19.3,18.7,-4.9,53.2,-18.7,101.128,35.33,0,1,0,1,2,NONE,107,727
2026-05-27T23:31:42.237,595178,0.9,-0.31,-0.13,41.7,7.0,16.9,-5.5,53.9,-17.1,101.123,35.33,0,1,0,1,2,NONE,123,803
2026-05-27T23:31:42.283,595230,1.05,-0.55,-0.6,19.1,58.0,3.8,-4.2,54.9,-15.9,101.119,35.33,0,1,0,0,1,NONE,119,739
2026-05-27T23:31:42.337,595278,1.08,0.08,-0.22,-19.4,19.3,21.4,-3.2,54.4,-16.4,101.123,35.34,0,1,0,0,1,NONE,103,637
2026-05-27T23:31:42.379,595330,0.95,-0.04,-0.38,87.9,13.6,19.0,-3.3,54.2,-15.5,101.121,35.34,0,1,0,0,1,NONE,155,1023
2026-05-27T23:31:42.438,595380,0.89,-0.02,-0.43,66.7,14.2,21.4,-2.0,55.0,-13.4,101.124,35.34,0,1,0,0,1,NONE,207,1179
2026-05-27T23:31:42.487,595428,0.93,-0.06,-0.34,19.8,14.2,7.6,-1.6,56.0,-11.4,101.122,35.34,0,1,0,0,1,NONE,60,444
2026-05-27T23:31:42.538,595480,0.97,-0.06,-0.41,11.0,9.8,6.3,-1.9,55.8,-11.5,101.124,35.33,0,1,0,0,1,NONE,75,422
2026-05-27T23:31:42.590,595532,0.9,0.11,-0.36,15.0,-3.1,10.1,-1.8,55.2,-10.6,101.126,35.33,0,1,0,0,1,NONE,60,458
2026-05-27T23:31:42.632,595578,0.91,-0.02,-0.33,10.1,2.3,11.4,-1.9,55.8,-11.2,101.121,35.34,0,1,0,0,1,NONE,46,296
2026-05-27T23:31:42.687,595630,0.9,0.03,-0.34,11.5,-1.7,8.7,-1.7,55.8,-11.1,101.124,35.34,0,1,0,0,1,NONE,44,228
2026-05-27T23:31:42.731,595678,0.87,-0.03,-0.36,-1.2,4.4,4.9,-1.2,56.0,-11.0,101.122,35.33,0,1,0,0,1,NONE,58,328
2026-05-27T23:31:42.780,595730,0.98,0.03,-0.33,14.0,0.1,2.4,-1.0,55.3,-11.2,101.125,35.34,0,1,0,0,1,NONE,147,838
2026-05-27T23:31:42.839,595782,0.85,-0.0,-0.28,0.2,-2.6,-1.3,-1.2,55.9,-10.5,101.122,35.34,0,1,0,0,1,NONE,56,330
2026-05-27T23:31:42.888,595830,0.94,-0.02,-0.33,-3.1,9.8,-7.4,-1.2,55.9,-11.0,101.124,35.33,0,1,0,0,1,NONE,62,401
2026-05-27T23:31:42.936,595878,0.92,-0.02,-0.28,-2.9,4.6,-6.1,-1.5,56.2,-11.5,101.123,35.34,0,1,0,0,1,NONE,62,368
2026-05-27T23:31:42.985,595930,0.93,-0.05,-0.28,-12.6,4.8,-12.7,-1.6,55.9,-11.7,101.12,35.34,0,1,0,0,1,NONE,40,236
2026-05-27T23:31:43.031,595980,0.99,-0.07,-0.26,-14.0,1.0,-14.6,-2.2,55.4,-12.0,101.121,35.34,0,1,0,0,1,NONE,115,648
2026-05-27T23:31:43.088,596028,0.93,-0.08,-0.23,-19.7,-2.6,-17.7,-3.2,56.2,-11.5,101.124,35.34,0,1,0,0,1,NONE,55,340
2026-05-27T23:31:43.131,596080,0.96,-0.08,-0.26,-15.6,-0.5,-15.7,-4.1,55.9,-12.2,101.121,35.34,0,1,0,0,1,NONE,57,298
2026-05-27T23:31:43.180,596132,0.92,-0.15,-0.22,-32.2,-2.1,-12.6,-4.5,56.1,-13.4,101.127,35.33,0,1,0,0,1,NONE,45,211
2026-05-27T23:31:43.225,596178,1.01,-0.15,-0.59,-35.1,39.7,-2.7,-4.6,56.0,-14.4,101.123,35.34,0,1,0,0,1,NONE,61,283
2026-05-27T23:31:43.289,596230,0.94,-0.14,-0.32,-20.2,-8.7,7.3,-4.2,55.3,-16.0,101.122,35.34,0,1,0,0,1,NONE,81,404
2026-05-27T23:31:43.337,596278,0.91,-0.24,-0.35,-31.5,7.6,-0.4,-3.9,53.9,-17.3,101.12,35.34,0,1,0,0,1,NONE,29,176
2026-05-27T23:31:43.385,596330,0.96,-0.21,-0.3,-36.7,1.7,-6.2,-4.4,53.5,-16.8,101.122,35.33,0,1,0,0,1,NONE,67,327
2026-05-27T23:31:43.437,596382,0.94,-0.3,-0.2,3.4,-10.0,-5.4,-5.4,53.7,-17.9,101.122,35.34,0,1,0,0,1,NONE,129,696
2026-05-27T23:31:43.483,596430,0.85,-0.37,-0.24,-18.2,-5.4,-4.9,-4.4,54.0,-17.6,101.123,35.33,0,1,0,0,1,NONE,85,523
2026-05-27T23:31:43.532,596478,0.88,-0.24,-0.22,-18.5,-5.9,1.5,-5.0,53.3,-18.9,101.117,35.33,0,1,0,0,1,NONE,69,387
2026-05-27T23:31:43.581,596530,0.87,-0.26,-0.23,-2.1,0.1,4.2,-5.4,52.9,-20.2,101.123,35.33,0,1,0,0,1,NONE,65,406
2026-05-27T23:31:43.629,596580,0.88,-0.32,-0.25,-15.7,2.7,5.1,-5.5,52.5,-19.7,101.126,35.34,0,1,0,0,1,NONE,73,384
2026-05-27T23:31:43.683,596629,0.91,-0.29,-0.21,-6.9,7.8,9.8,-5.4,52.6,-20.6,101.122,35.33,0,1,0,0,1,NONE,76,400
2026-05-27T23:31:43.738,596680,0.9,-0.2,-0.23,4.5,8.5,10.6,-5.6,52.1,-20.5,101.12,35.34,0,1,0,0,1,NONE,56,241
2026-05-27T23:31:43.787,596732,0.93,-0.23,-0.19,9.9,3.5,12.1,-5.0,52.1,-20.3,101.122,35.33,0,1,0,0,1,NONE,55,330
2026-05-27T23:31:43.836,596778,0.91,-0.21,-0.14,29.9,-2.8,14.8,-4.6,51.7,-18.3,101.125,35.34,0,1,0,0,1,NONE,51,268
2026-05-27T23:31:43.881,596830,0.97,-0.21,-0.17,42.4,13.0,22.9,-4.5,52.1,-19.7,101.122,35.33,0,1,0,0,1,NONE,49,185
2026-05-27T23:31:43.930,596878,0.92,-0.35,-0.64,13.2,10.7,11.5,-4.1,52.5,-18.6,101.122,35.33,0,1,0,0,1,NONE,43,207
2026-05-27T23:31:43.981,596930,1.15,0.1,-0.21,34.2,-3.7,13.1,-4.0,53.1,-18.1,101.121,35.33,0,1,0,0,1,NONE,44,228
2026-05-27T23:31:44.033,596981,0.9,-0.31,-0.37,49.3,8.5,9.9,-3.1,53.2,-18.2,101.122,35.34,0,1,0,0,1,NONE,42,198
2026-05-27T23:31:44.075,597030,0.9,-0.05,-0.37,16.8,2.1,6.0,-4.0,54.0,-16.7,101.12,35.34,0,1,0,0,1,NONE,34,144
2026-05-27T23:31:44.127,597078,0.89,-0.07,-0.35,30.9,1.5,5.4,-3.4,54.9,-16.5,101.124,35.33,0,1,0,0,1,NONE,42,174
2026-05-27T23:31:44.188,597130,0.96,-0.05,-0.29,14.0,-1.7,6.3,-3.2,54.9,-14.4,101.121,35.34,0,1,0,0,1,NONE,39,211
2026-05-27T23:31:44.238,597180,0.93,-0.03,-0.34,3.5,7.4,2.7,-3.9,54.3,-15.3,101.122,35.33,0,1,0,0,1,NONE,38,241
2026-05-27T23:31:44.286,597228,0.94,-0.06,-0.29,9.9,-6.8,1.5,-3.3,54.3,-14.8,101.12,35.34,0,1,0,0,1,NONE,49,267
2026-05-27T23:31:44.336,597280,0.94,-0.06,-0.29,-0.6,4.2,-1.6,-4.3,54.5,-16.1,101.121,35.34,0,1,0,0,1,NONE,39,301
2026-05-27T23:31:44.383,597332,0.9,-0.1,-0.23,-8.5,-3.5,0.7,-4.0,55.0,-14.2,101.125,35.34,0,1,0,0,1,NONE,84,492
2026-05-27T23:31:44.428,597378,0.92,-0.04,-0.2,-14.2,5.1,-3.5,-4.3,55.4,-15.6,101.123,35.33,0,1,0,0,1,NONE,64,459
2026-05-27T23:31:44.480,597430,0.97,-0.02,-0.2,-15.9,-1.6,-8.7,-4.4,54.4,-17.0,101.123,35.34,0,1,0,0,1,NONE,39,215
2026-05-27T23:31:44.525,597478,0.95,-0.06,-0.2,-17.3,0.0,-10.6,-5.2,54.7,-16.7,101.124,35.34,0,1,0,0,1,NONE,51,292
2026-05-27T23:31:44.589,597530,0.84,-0.16,-0.21,-42.0,1.6,-9.7,-4.8,53.7,-18.2,101.122,35.33,0,1,0,0,1,NONE,37,219
2026-05-27T23:31:44.637,597582,0.89,-0.22,-0.24,-49.6,7.5,-10.2,-5.4,53.2,-19.5,101.123,35.33,0,1,0,0,1,NONE,43,232
2026-05-27T23:31:44.688,597630,1.35,-0.02,-0.79,-6.3,27.0,0.1,-5.2,52.3,-18.1,101.125,35.34,0,1,0,0,1,NONE,77,167
2026-05-27T23:31:44.737,597678,0.77,-0.53,-0.22,-47.7,6.0,-10.0,-5.0,51.9,-19.0,101.123,35.34,0,1,0,0,1,NONE,34,202
2026-05-27T23:31:44.785,597730,0.99,-0.05,-0.3,-53.3,15.0,1.2,-5.0,50.6,-20.4,101.121,35.34,0,1,0,0,1,NONE,29,161
2026-05-27T23:31:44.829,597780,0.96,-0.39,-0.25,-13.0,4.8,-2.0,-5.0,50.4,-19.9,101.123,35.34,0,1,0,0,1,NONE,26,168
2026-05-27T23:31:44.887,597828,0.84,-0.38,-0.21,-30.3,-2.7,1.0,-4.8,49.8,-23.0,101.121,35.34,0,1,0,0,1,NONE,24,153
2026-05-27T23:31:44.923,597880,0.85,-0.39,-0.26,-48.3,6.0,2.3,-5.0,49.3,-23.2,101.122,35.34,0,1,0,0,1,NONE,35,203
2026-05-27T23:31:44.990,597932,0.85,-0.36,-0.22,-43.9,9.2,11.2,-4.9,47.4,-23.9,101.123,35.34,0,1,0,0,1,NONE,30,179
2026-05-27T23:31:45.036,597978,0.87,-0.39,-0.26,-58.5,16.1,13.1,-4.0,45.6,-24.2,101.122,35.34,0,1,0,0,1,NONE,42,220
2026-05-27T23:31:45.088,598030,0.88,-0.39,-0.19,-69.5,18.2,18.4,-3.2,44.5,-25.7,101.122,35.34,0,1,0,0,1,NONE,47,238
2026-05-27T23:31:45.135,598078,0.87,-0.33,-0.21,-75.5,22.7,23.7,-2.8,42.4,-26.2,101.125,35.34,0,1,0,0,1,NONE,43,245
2026-05-27T23:31:45.184,598130,0.88,-0.32,-0.23,-68.8,23.7,25.5,-1.8,40.1,-27.0,101.125,35.34,0,1,0,0,1,NONE,39,192
2026-05-27T23:31:45.231,598182,0.89,-0.34,-0.22,-69.9,23.2,26.4,-1.3,37.6,-27.4,101.126,35.34,0,1,0,0,1,NONE,55,203
2026-05-27T23:31:45.277,598230,0.86,-0.43,-0.23,-77.6,30.2,24.4,-0.0,34.1,-27.1,101.123,35.34,0,0,0,0,0,NONE,25,129
2026-05-27T23:31:45.329,598278,0.97,-0.25,-0.18,-65.7,16.2,28.0,0.4,31.7,-27.5,101.125,35.34,0,0,0,0,0,NONE,23,137
2026-05-27T23:31:45.388,598330,0.99,-0.31,-0.18,-47.2,17.5,30.9,1.3,31.0,-26.4,101.124,35.34,0,0,0,0,0,NONE,60,284
2026-05-27T23:31:45.436,598380,1.12,-0.21,-0.49,-40.5,12.7,22.0,2.4,29.2,-26.1,101.123,35.34,0,0,0,0,0,NONE,55,309
2026-05-27T23:31:45.484,598428,0.64,-0.05,-0.14,-26.0,2.1,26.6,1.7,27.5,-27.3,101.121,35.33,0,0,0,0,0,NONE,72,353
2026-05-27T23:31:45.538,598480,1.06,-0.2,-0.29,-38.1,22.8,25.0,2.2,26.3,-25.9,101.118,35.34,0,0,0,0,0,NONE,56,355
2026-05-27T23:31:45.580,598532,0.94,0.01,-0.28,-65.5,12.6,23.3,2.3,24.5,-25.4,101.121,35.34,0,1,0,0,1,NONE,53,372
2026-05-27T23:31:45.632,598578,0.94,-0.09,-0.27,-32.8,13.1,22.6,2.7,22.7,-24.4,101.126,35.34,0,1,0,0,1,NONE,59,307
2026-05-27T23:31:45.676,598630,0.95,-0.05,-0.25,-15.0,10.0,22.2,2.3,21.6,-23.6,101.123,35.34,0,0,0,0,0,NONE,46,241
2026-05-27T23:31:45.728,598678,0.96,-0.19,-0.22,-17.6,11.8,15.4,2.2,21.2,-23.6,101.121,35.33,0,0,0,0,0,NONE,46,276
2026-05-27T23:31:45.789,598730,0.94,-0.1,-0.27,-27.2,15.8,8.6,2.9,19.9,-23.3,101.125,35.34,0,0,0,0,0,NONE,44,291
2026-05-27T23:31:45.840,598782,0.89,-0.1,-0.2,-5.0,7.0,7.4,2.9,19.3,-23.0,101.124,35.34,0,0,0,0,0,NONE,76,513
2026-05-27T23:31:45.888,598829,0.98,-0.15,-0.24,-7.0,17.7,3.9,2.9,19.2,-22.7,101.124,35.34,0,0,0,0,0,NONE,58,370
2026-05-27T23:31:45.937,598878,0.94,-0.15,-0.22,-9.4,12.1,2.9,4.0,18.5,-22.6,101.125,35.34,0,0,0,0,0,NONE,62,330
2026-05-27T23:31:45.982,598930,0.93,-0.13,-0.15,-13.4,17.0,2.8,3.5,18.5,-23.0,101.119,35.35,0,0,0,0,0,NONE,54,416
2026-05-27T23:31:46.032,598980,0.92,-0.12,-0.15,-9.4,9.5,1.1,3.8,18.0,-21.3,101.124,35.34,0,0,0,0,0,NONE,45,258
2026-05-27T23:31:46.082,599028,0.96,-0.2,-0.16,-18.8,7.2,-1.2,4.6,17.9,-21.0,101.123,35.34,0,0,0,0,0,NONE,29,144
2026-05-27T23:31:46.132,599080,0.94,-0.19,-0.2,-26.6,3.9,-2.9,4.1,17.4,-20.8,101.123,35.34,0,0,0,0,0,NONE,48,224
2026-05-27T23:31:46.189,599132,1.03,-0.1,-0.33,-8.7,11.8,-2.3,4.2,17.1,-21.1,101.121,35.34,0,0,0,0,0,NONE,40,228
2026-05-27T23:31:46.225,599178,0.98,-0.23,-0.31,-17.3,6.3,-5.2,5.0,16.6,-19.6,101.122,35.34,0,0,0,0,0,NONE,36,199
2026-05-27T23:31:46.285,599230,0.92,-0.27,-0.27,-34.2,7.2,-14.2,4.9,16.3,-21.1,101.124,35.34,0,0,0,0,0,NONE,43,221
2026-05-27T23:31:46.334,599278,0.98,-0.11,-0.4,-16.7,6.2,-12.6,5.3,15.7,-19.4,101.124,35.34,0,0,0,0,0,NONE,46,226
2026-05-27T23:31:46.384,599330,0.95,-0.15,-0.43,-2.5,3.4,-7.4,6.2,15.5,-18.8,101.125,35.33,0,0,0,0,0,NONE,31,154
2026-05-27T23:31:46.443,599381,0.91,-0.32,-0.28,2.2,-9.9,-3.7,5.9,16.2,-19.4,101.123,35.34,0,0,0,0,0,NONE,29,182
2026-05-27T23:31:46.482,599430,0.95,-0.33,-0.29,-21.7,-3.1,-6.0,5.4,16.1,-18.5,101.121,35.34,0,0,0,0,0,NONE,36,208
2026-05-27T23:31:46.539,599481,0.85,-0.25,-0.25,-6.1,-7.5,-6.8,5.5,15.0,-18.6,101.121,35.34,0,0,0,0,0,NONE,48,226
2026-05-27T23:31:46.574,599528,0.83,-0.33,-0.26,-10.6,4.2,-1.6,5.7,16.0,-18.8,101.122,35.34,0,0,0,0,0,NONE,47,231
2026-05-27T23:31:46.639,599582,0.86,-0.23,-0.28,-4.9,7.1,1.3,5.8,15.1,-19.1,101.123,35.34,0,0,0,0,0,NONE,37,213
2026-05-27T23:31:46.686,599628,0.84,-0.34,-0.23,-5.5,14.0,1.4,5.7,14.6,-19.7,101.119,35.34,0,0,0,0,0,NONE,48,216
2026-05-27T23:31:46.737,599678,0.87,-0.35,-0.23,-23.8,16.7,-0.9,6.3,14.6,-18.2,101.122,35.34,0,0,0,0,0,NONE,36,160
2026-05-27T23:31:46.786,599728,0.89,-0.22,-0.19,-5.2,14.7,6.2,6.4,14.0,-17.1,101.124,35.34,0,0,0,0,0,NONE,47,180
2026-05-27T23:31:46.839,599780,0.89,-0.35,-0.13,-10.4,13.1,7.4,6.9,13.8,-17.2,101.123,35.34,0,0,0,0,0,NONE,45,187
2026-05-27T23:31:46.886,599828,0.99,-0.3,-0.11,-4.0,7.5,16.2,6.7,13.1,-16.5,101.125,35.34,0,0,0,0,0,NONE,41,204
2026-05-27T23:31:46.930,599880,0.96,-0.21,-0.06,5.6,-10.9,22.1,7.0,13.0,-16.3,101.126,35.35,0,0,0,0,0,NONE,37,223
2026-05-27T23:31:46.980,599930,0.99,-0.39,-0.21,2.9,-3.8,14.0,6.4,12.3,-16.9,101.119,35.34,0,0,0,0,0,NONE,62,254
2026-05-27T23:31:47.035,599978,0.94,-0.34,-0.35,-19.0,1.7,15.4,6.0,12.7,-17.4,101.123,35.34,0,0,0,0,0,NONE,33,155
2026-05-27T23:31:47.088,600030,0.98,-0.13,-0.31,9.3,-10.3,18.2,5.4,12.2,-16.2,101.125,35.34,0,0,0,0,0,NONE,37,158
2026-05-27T23:31:47.126,600078,0.72,-0.18,-0.26,8.2,-5.7,16.4,5.0,12.1,-17.8,101.12,35.34,0,0,0,0,0,NONE,48,174
2026-05-27T23:31:47.189,600130,0.83,-0.11,-0.26,24.8,-5.5,13.8,4.6,11.3,-17.0,101.121,35.34,0,0,0,0,0,NONE,46,250
2026-05-27T23:31:47.233,600178,1.02,-0.23,-0.24,-4.8,-1.9,7.8,3.9,12.0,-18.5,101.123,35.34,0,0,0,0,0,NONE,45,242
2026-05-27T23:31:47.286,600230,1.1,-0.07,-0.31,-2.3,-4.3,3.2,4.4,11.4,-18.3,101.122,35.34,0,0,0,0,0,NONE,43,207
2026-05-27T23:31:47.334,600280,0.99,-0.09,-0.2,9.1,-3.6,1.8,4.2,11.6,-18.0,101.122,35.33,0,0,0,0,0,NONE,60,362
2026-05-27T23:31:47.381,600328,0.92,-0.28,-0.22,1.1,-2.1,-0.1,4.3,11.5,-17.8,101.125,35.35,0,0,0,0,0,NONE,60,322
2026-05-27T23:31:47.427,600380,0.93,-0.17,-0.25,-5.7,5.1,5.9,4.0,11.4,-17.7,101.124,35.34,0,0,0,0,0,NONE,62,371
2026-05-27T23:31:47.489,600432,0.92,-0.17,-0.18,-4.6,8.2,4.0,3.7,11.1,-18.5,101.122,35.34,0,0,0,0,0,NONE,61,403
2026-05-27T23:31:47.524,600478,0.92,-0.07,-0.15,-2.3,12.6,2.6,3.4,11.4,-17.6,101.12,35.34,0,0,0,0,0,NONE,54,434
2026-05-27T23:31:47.590,600532,0.91,-0.18,-0.16,-9.0,7.6,2.6,3.9,10.7,-16.8,101.122,35.34,0,0,0,0,0,NONE,61,370
2026-05-27T23:31:47.633,600578,0.95,-0.19,-0.12,-13.9,13.2,4.3,4.1,10.5,-17.1,101.123,35.34,0,0,0,0,0,NONE,45,249
2026-05-27T23:31:47.687,600630,0.85,-0.13,-0.12,-21.6,0.2,3.3,4.4,10.3,-17.0,101.124,35.34,0,0,0,0,0,NONE,46,208
2026-05-27T23:31:47.733,600681,0.98,-0.13,-0.06,-6.9,8.7,3.8,4.6,9.6,-15.8,101.123,35.34,0,0,0,0,0,NONE,44,286
2026-05-27T23:31:47.781,600729,0.96,-0.29,-0.19,-34.4,5.3,-0.9,5.0,9.3,-14.9,101.121,35.34,0,0,0,0,0,NONE,53,288
2026-05-27T23:31:47.837,600778,0.96,-0.2,-0.0,-48.0,11.2,0.6,4.7,9.3,-12.2,101.122,35.34,0,0,0,0,0,NONE,65,240
2026-05-27T23:31:47.878,600827,0.97,-0.19,-0.22,-62.9,20.1,-3.5,4.7,9.3,-12.2,101.125,35.35,0,0,0,0,0,NONE,50,268
2026-05-27T23:31:47.938,600882,1.12,-0.07,-0.32,-38.6,28.1,8.3,5.6,7.1,-10.3,101.124,35.34,0,0,0,0,0,NONE,95,269
2026-05-27T23:31:47.986,600928,1.12,-0.22,-0.58,-44.6,16.1,3.4,5.8,6.4,-8.4,101.12,35.34,0,0,0,0,0,NONE,64,308
2026-05-27T23:31:48.037,600978,0.67,-0.41,-0.09,-73.8,12.0,3.9,5.5,5.7,-6.6,101.12,35.35,0,0,0,0,0,NONE,65,285
2026-05-27T23:31:48.086,601028,0.92,-0.36,-0.43,-115.6,47.3,-5.9,6.2,6.7,-4.3,101.122,35.34,0,0,0,0,0,NONE,46,279
2026-05-27T23:31:48.133,601080,0.89,-0.24,-0.29,-12.4,9.0,13.5,6.0,5.7,-1.1,101.122,35.34,0,0,0,0,0,NONE,50,221
2026-05-27T23:31:48.179,601128,0.83,-0.29,-0.24,-43.3,19.1,7.8,5.6,5.2,0.5,101.123,35.35,0,0,0,0,0,NONE,44,231
2026-05-27T23:31:48.238,601180,0.85,-0.44,-0.32,-54.9,26.6,5.4,6.0,5.4,2.1,101.124,35.34,0,0,0,0,0,NONE,41,238
2026-05-27T23:31:48.286,601230,0.91,-0.23,-0.34,-42.7,24.7,11.5,5.5,5.6,3.4,101.124,35.34,0,0,0,0,0,NONE,49,226
2026-05-27T23:31:48.335,601278,0.86,-0.29,-0.24,-28.7,21.4,14.0,5.4,5.4,5.6,101.125,35.34,0,0,0,0,0,NONE,38,200
2026-05-27T23:31:48.381,601330,0.88,-0.38,-0.13,-32.8,21.7,13.1,5.1,5.2,6.2,101.124,35.35,0,0,0,0,0,NONE,48,236
2026-05-27T23:31:48.435,601378,0.93,-0.37,-0.18,-39.4,18.3,16.7,5.0,5.1,8.4,101.122,35.34,0,0,0,0,0,NONE,62,283
2026-05-27T23:31:48.476,601430,0.85,-0.39,-0.27,-42.3,20.1,20.5,3.5,5.4,8.7,101.123,35.34,0,0,0,0,0,NONE,50,264
2026-05-27T23:31:48.524,601478,0.97,-0.13,-0.26,-17.9,12.2,24.9,3.2,5.2,9.5,101.122,35.35,0,0,0,0,0,NONE,53,273
2026-05-27T23:31:48.589,601530,0.91,-0.4,-0.12,-33.8,5.2,11.5,2.9,5.6,10.5,101.128,35.35,0,0,0,0,0,NONE,46,199
2026-05-27T23:31:48.636,601580,0.98,-0.32,-0.21,-35.1,6.6,19.4,2.3,5.4,11.7,101.121,35.34,0,0,0,0,0,NONE,61,294
2026-05-27T23:31:48.682,601628,0.91,-0.27,-0.16,-12.5,-1.1,20.3,1.8,5.4,12.0,101.122,35.34,0,0,0,0,0,NONE,47,218
2026-05-27T23:31:48.730,601680,0.92,-0.31,-0.17,-20.4,1.7,18.7,1.3,5.9,12.6,101.124,35.34,0,0,0,0,0,NONE,41,159
2026-05-27T23:31:48.784,601732,0.89,-0.28,-0.19,-11.6,4.3,18.3,1.3,6.3,14.2,101.122,35.35,0,0,0,0,0,NONE,65,176
2026-05-27T23:31:48.836,601778,1.07,-0.46,-0.48,-5.4,17.9,9.8,0.7,5.9,13.3,101.123,35.34,0,0,0,0,0,NONE,44,251
2026-05-27T23:31:48.887,601830,1.0,-0.02,-0.15,-32.5,-4.3,15.6,0.3,6.1,14.3,101.123,35.34,0,1,0,0,1,NONE,46,240
2026-05-27T23:31:48.935,601878,0.9,-0.28,-0.24,11.9,5.0,18.2,-0.5,6.2,15.1,101.124,35.34,0,1,0,0,1,NONE,57,307
2026-05-27T23:31:48.985,601930,0.91,-0.04,-0.28,-6.8,2.9,16.8,-0.9,6.5,14.6,101.126,35.34,0,0,0,0,0,NONE,48,309
2026-05-27T23:31:49.037,601981,0.91,-0.1,-0.23,-2.2,1.0,13.9,-1.3,5.8,15.7,101.12,35.34,0,0,0,0,0,NONE,63,313
2026-05-27T23:31:49.083,602030,0.94,-0.12,-0.22,-17.8,10.1,7.9,-1.4,6.3,15.5,101.123,35.34,0,0,0,0,0,NONE,57,379
2026-05-27T23:31:49.132,602078,0.94,-0.07,-0.28,-9.6,4.6,9.8,-1.9,6.6,16.6,101.125,35.35,0,0,0,0,0,NONE,60,371
2026-05-27T23:31:49.181,602130,0.92,-0.1,-0.21,-4.5,5.6,9.6,-1.9,6.1,15.8,101.122,35.34,0,0,0,0,0,NONE,64,348
2026-05-27T23:31:49.236,602180,0.97,-0.16,-0.24,-12.3,9.6,8.5,-1.7,7.3,16.5,101.123,35.35,0,0,0,0,0,NONE,53,324
2026-05-27T23:31:49.288,602228,0.93,-0.1,-0.17,-12.6,8.3,5.9,-2.5,6.8,18.5,101.124,35.35,0,1,0,0,1,NONE,51,280
2026-05-27T23:31:49.336,602280,0.93,-0.15,-0.22,-18.2,14.3,3.2,-3.0,7.4,17.6,101.121,35.35,0,1,0,0,1,NONE,51,282
2026-05-27T23:31:49.389,602332,0.94,-0.13,-0.21,-19.8,11.5,0.2,-3.1,7.6,18.6,101.124,35.34,0,1,0,0,1,NONE,62,376
2026-05-27T23:31:49.432,602378,0.92,-0.12,-0.14,-22.0,14.5,-3.6,-3.5,8.7,18.4,101.126,35.34,0,1,0,0,1,NONE,48,312
2026-05-27T23:31:49.479,602432,1.03,-0.15,-0.14,-18.5,6.5,-4.9,-3.6,9.5,20.0,101.124,35.35,0,0,0,0,0,NONE,62,327
2026-05-27T23:31:49.529,602478,0.97,-0.17,-0.13,-16.7,0.8,-5.6,-3.5,10.2,21.9,101.123,35.34,0,0,0,0,0,NONE,59,328
2026-05-27T23:31:49.589,602530,0.92,-0.17,-0.13,-21.2,-1.1,-4.0,-3.0,10.1,21.2,101.124,35.34,0,1,0,0,1,NONE,43,241
2026-05-27T23:31:49.637,602582,1.24,-0.05,-0.36,-19.6,14.0,0.9,-2.6,11.0,21.5,101.125,35.34,0,1,0,0,1,NONE,128,346
2026-05-27T23:31:49.685,602630,0.98,-0.13,-0.43,13.9,-5.7,8.9,-2.8,11.6,22.1,101.124,35.35,0,1,0,0,1,NONE,69,425
2026-05-27T23:31:49.733,602678,0.82,-0.2,-0.29,-4.7,1.1,-1.4,-2.2,11.2,21.5,101.122,35.35,0,1,0,0,1,NONE,63,347
2026-05-27T23:31:49.785,602730,0.85,-0.19,-0.28,-29.4,9.0,-4.3,-2.3,11.7,22.0,101.118,35.34,0,1,0,0,1,NONE,92,479
2026-05-27T23:31:49.834,602780,0.93,-0.27,-0.33,-12.0,4.9,-1.5,-2.5,12.5,21.9,101.124,35.34,0,1,0,0,1,NONE,94,547
2026-05-27T23:31:49.883,602828,0.91,-0.28,-0.25,-0.3,0.0,2.0,-2.0,12.5,23.9,101.121,35.34,0,0,0,0,0,NONE,83,510
2026-05-27T23:31:49.924,602880,0.9,-0.25,-0.24,-8.7,0.5,0.7,-2.1,13.3,22.8,101.119,35.34,0,0,0,0,0,NONE,62,368
2026-05-27T23:31:49.990,602932,0.87,-0.27,-0.32,-14.3,10.2,-2.2,-1.8,12.9,22.9,101.123,35.34,0,1,0,0,1,NONE,52,269
2026-05-27T23:31:50.036,602978,0.91,-0.24,-0.25,-7.8,10.6,0.2,-1.9,13.8,22.4,101.12,35.35,0,1,0,0,1,NONE,67,343
2026-05-27T23:31:50.088,603030,0.91,-0.28,-0.25,-7.6,7.5,1.8,-1.7,14.1,23.6,101.128,35.35,0,1,0,0,1,NONE,57,262
2026-05-27T23:31:50.139,603078,0.91,-0.24,-0.23,-0.7,13.1,4.6,-2.3,14.3,25.4,101.122,35.35,0,1,0,0,1,NONE,66,381
2026-05-27T23:31:50.188,603130,0.88,-0.25,-0.22,-1.6,11.7,6.3,-2.5,14.2,24.5,101.122,35.35,0,1,0,0,1,NONE,57,274
2026-05-27T23:31:50.234,603182,0.92,-0.26,-0.21,3.8,19.1,9.0,-2.9,14.7,24.7,101.12,35.35,0,1,0,0,1,NONE,51,362
2026-05-27T23:31:50.282,603230,0.91,-0.22,-0.27,4.3,22.9,16.1,-3.1,14.5,25.3,101.124,35.34,0,1,0,0,1,NONE,59,331
2026-05-27T23:31:50.331,603278,0.98,-0.2,-0.25,8.2,11.4,20.3,-4.5,14.2,25.5,101.121,35.35,0,1,0,0,1,NONE,81,512
2026-05-27T23:31:50.381,603330,0.96,-0.16,-0.14,24.7,-10.4,22.2,-4.6,13.4,25.7,101.12,35.35,0,0,0,0,0,NONE,65,373
2026-05-27T23:31:50.437,603380,1.15,-0.3,-0.3,45.1,5.9,20.8,-4.4,12.8,25.4,101.121,35.35,0,0,0,0,0,NONE,81,379
2026-05-27T23:31:50.487,603428,0.72,-0.18,-0.26,-18.2,-3.7,7.0,-4.7,11.5,24.5,101.123,35.35,0,1,0,0,1,NONE,95,524
2026-05-27T23:31:50.535,603480,1.06,-0.11,-0.33,5.6,7.3,2.7,-5.1,12.8,24.9,101.119,35.34,0,1,0,0,1,NONE,90,524
2026-05-27T23:31:50.590,603532,1.11,-0.04,-0.37,19.4,-4.8,7.1,-5.1,12.5,24.3,101.124,35.34,0,0,0,0,0,NONE,85,612
2026-05-27T23:31:50.633,603578,0.92,-0.03,-0.27,35.5,-17.1,11.6,-5.0,12.0,24.8,101.119,35.35,0,0,0,0,0,NONE,81,569
2026-05-27T23:31:50.684,603630,0.89,-0.1,-0.26,26.6,-6.8,6.4,-4.2,11.4,23.5,101.123,35.35,0,0,0,0,0,NONE,77,379
2026-05-27T23:31:50.739,603678,0.94,-0.08,-0.21,4.2,-6.0,-0.4,-4.2,10.9,23.4,101.123,35.35,0,0,0,0,0,NONE,84,371
2026-05-27T23:31:50.784,603730,0.97,-0.02,-0.24,4.5,1.2,-0.9,-4.3,10.9,21.2,101.122,35.35,0,0,0,0,0,NONE,73,334
2026-05-27T23:31:50.840,603782,0.9,0.02,-0.3,12.8,-5.9,1.5,-4.4,10.9,23.3,101.121,35.35,0,0,0,0,0,NONE,99,509
2026-05-27T23:31:50.888,603830,0.92,-0.05,-0.29,17.0,-3.7,0.2,-3.9,10.0,22.1,101.125,35.35,0,1,0,0,1,NONE,104,600
2026-05-27T23:31:50.936,603878,0.8,-0.12,-0.24,10.4,4.5,-1.0,-4.1,10.3,23.4,101.121,35.35,0,1,0,0,1,NONE,77,529
2026-05-27T23:31:50.983,603930,0.92,-0.08,-0.26,13.4,19.0,2.0,-3.7,10.2,22.6,101.123,35.34,0,0,0,0,0,NONE,111,579
2026-05-27T23:31:51.031,603980,0.94,-0.06,-0.22,-20.1,24.5,-3.8,-4.0,10.1,22.9,101.124,35.34,0,0,0,0,0,NONE,98,553
2026-05-27T23:31:51.090,604029,1.0,-0.05,-0.13,-11.3,8.4,-11.5,-5.1,10.3,23.6,101.124,35.35,0,1,0,0,1,NONE,84,559
2026-05-27T23:31:51.130,604080,0.98,-0.14,-0.11,-27.8,3.2,-20.0,-4.0,11.3,23.3,101.12,35.34,0,1,0,0,1,NONE,200,970
2026-05-27T23:31:51.190,604132,1.36,-0.01,-0.72,-19.0,37.2,-6.6,-4.2,12.8,23.1,101.123,35.34,0,1,0,0,1,NONE,130,799
2026-05-27T23:31:51.222,604178,0.89,-0.28,-0.23,11.5,-15.9,-0.1,-4.6,13.5,26.3,101.123,35.35,0,1,0,0,1,NONE,107,576
2026-05-27T23:31:51.288,604230,0.94,-0.02,-0.26,-2.3,3.2,2.2,-3.9,13.8,25.2,101.125,35.36,0,1,0,0,1,NONE,76,357
2026-05-27T23:31:51.336,604278,0.9,-0.31,-0.28,-10.4,-7.0,-5.2,-4.0,13.3,25.6,101.125,35.35,0,1,0,0,1,NONE,85,367
2026-05-27T23:31:51.389,604330,0.94,-0.29,-0.24,9.9,-4.3,-3.2,-2.6,14.6,24.9,101.123,35.35,0,1,0,0,1,NONE,81,454
2026-05-27T23:31:51.434,604382,0.89,-0.27,-0.22,-0.8,-6.7,-4.0,-2.3,14.4,24.4,101.122,35.35,0,1,0,0,1,NONE,66,539
2026-05-27T23:31:51.479,604430,0.9,-0.29,-0.23,-12.3,-3.4,-3.8,-1.9,13.9,26.0,101.126,35.35,0,1,0,0,1,NONE,58,292
2026-05-27T23:31:51.525,604478,0.92,-0.24,-0.22,-10.0,5.5,-1.2,-1.9,15.1,24.9,101.12,35.34,0,1,0,0,1,NONE,86,399
2026-05-27T23:31:51.588,604530,0.9,-0.32,-0.21,-20.1,3.7,1.8,-1.8,15.9,24.6,101.122,35.34,0,1,0,0,1,NONE,85,396
2026-05-27T23:31:51.636,604578,0.87,-0.25,-0.22,-13.2,12.9,9.9,-2.2,16.1,25.7,101.122,35.35,0,1,0,0,1,NONE,78,375
2026-05-27T23:31:51.694,604630,0.93,-0.23,-0.21,-4.2,11.5,12.9,-3.6,16.4,27.1,101.121,35.35,0,1,0,0,1,NONE,50,286
2026-05-27T23:31:51.735,604680,0.91,-0.2,-0.2,1.2,8.7,17.0,-3.2,16.1,26.3,101.121,35.35,0,1,0,0,1,NONE,70,254
2026-05-27T23:31:51.783,604728,0.93,-0.2,-0.05,11.5,4.8,22.9,-3.9,15.9,26.0,101.124,35.35,0,1,0,0,1,NONE,65,286
2026-05-27T23:31:51.827,604780,1.16,-0.42,-0.59,31.9,36.3,15.1,-4.4,15.1,28.3,101.126,35.35,0,1,0,0,1,NONE,98,584
2026-05-27T23:31:51.890,604832,0.88,0.1,-0.16,-12.9,-6.3,9.6,-4.2,15.5,27.3,101.125,35.35,0,0,0,0,0,NONE,101,539
2026-05-27T23:31:51.932,604878,0.97,-0.21,-0.33,24.4,14.8,1.3,-4.6,15.4,26.7,101.123,35.35,0,0,0,0,0,NONE,113,543
2026-05-27T23:31:51.987,604930,1.01,-0.04,-0.34,9.5,0.0,3.1,-4.4,15.4,26.4,101.123,35.35,0,1,0,0,1,NONE,84,486
2026-05-27T23:31:52.037,604978,0.93,-0.09,-0.3,15.6,-5.2,1.3,-5.0,14.7,26.1,101.123,35.35,0,1,0,0,1,NONE,75,428
2026-05-27T23:31:52.087,605030,1.0,-0.12,-0.26,5.1,-13.3,0.9,-4.3,15.0,25.7,101.121,35.34,0,1,0,0,1,NONE,51,294
2026-05-27T23:31:52.135,605081,0.95,-0.05,-0.29,2.0,-11.4,1.9,-3.9,15.0,26.5,101.125,35.35,0,1,0,0,1,NONE,66,429
2026-05-27T23:31:52.183,605130,0.93,-0.05,-0.24,12.5,-14.9,3.4,-3.4,14.9,26.4,101.12,35.35,0,1,0,0,1,NONE,179,872
2026-05-27T23:31:52.232,605178,0.89,-0.08,-0.23,9.9,-2.6,2.4,-3.4,14.9,25.9,101.121,35.35,0,1,0,0,1,NONE,137,673
2026-05-27T23:31:52.283,605230,0.93,-0.11,-0.24,1.8,2.3,1.5,-3.2,14.6,26.0,101.122,35.35,0,1,0,0,1,NONE,98,546
2026-05-27T23:31:52.326,605280,0.9,-0.05,-0.16,4.4,11.5,-3.1,-2.8,14.6,25.3,101.124,35.35,0,1,0,0,1,NONE,63,359
2026-05-27T23:31:52.387,605328,0.97,-0.13,-0.22,-12.3,8.4,-9.2,-3.0,15.6,26.0,101.122,35.34,0,1,0,0,1,NONE,66,325
2026-05-27T23:31:52.438,605380,0.95,-0.11,-0.14,-4.6,-1.5,-11.0,-3.1,15.7,26.7,101.121,35.35,0,1,0,0,1,NONE,52,294
2026-05-27T23:31:52.487,605432,0.95,-0.12,-0.1,-20.9,-1.4,-10.9,-2.6,16.6,26.2,101.124,35.35,0,0,0,0,0,NONE,75,440
2026-05-27T23:31:52.533,605478,0.96,-0.09,-0.08,-19.2,-2.9,-12.8,-1.7,17.3,27.3,101.124,35.35,0,0,0,0,0,NONE,63,433
2026-05-27T23:31:52.585,605530,1.08,-0.12,-0.58,-7.3,14.0,-5.0,-1.6,17.9,28.1,101.121,35.34,0,1,0,0,1,NONE,59,398
2026-05-27T23:31:52.629,605578,0.89,-0.43,-0.19,-10.8,-5.6,3.5,-1.1,18.6,26.8,101.123,35.35,0,1,0,0,1,NONE,53,284
2026-05-27T23:31:52.686,605630,0.95,-0.15,-0.26,-11.0,5.7,7.6,-1.1,18.8,28.7,101.119,35.35,0,1,0,0,1,NONE,26,182
2026-05-27T23:31:52.739,605682,0.92,-0.36,-0.24,-36.2,2.7,-2.8,-1.3,20.3,28.7,101.123,35.35,0,1,0,0,1,NONE,42,243
2026-05-27T23:31:52.787,605730,0.93,-0.18,-0.27,-1.2,-2.6,-2.6,-1.2,21.2,28.7,101.123,35.35,0,1,0,0,1,NONE,43,234
2026-05-27T23:31:52.835,605778,0.88,-0.4,-0.23,-11.0,-4.0,-7.7,-0.5,21.0,28.3,101.124,35.35,0,1,0,0,1,NONE,39,206
2026-05-27T23:31:52.890,605830,0.78,-0.48,-0.21,-28.7,7.1,-2.2,-0.4,21.4,28.0,101.124,35.35,0,1,0,0,1,NONE,30,183
2026-05-27T23:31:52.935,605880,0.89,-0.37,-0.25,-44.8,18.7,1.7,-0.9,23.2,29.0,101.122,35.35,0,1,0,0,1,NONE,48,199
2026-05-27T23:31:52.987,605928,0.91,-0.36,-0.25,-52.9,24.2,2.9,-1.7,24.3,29.4,101.124,35.36,0,1,0,0,1,NONE,39,204
2026-05-27T23:31:53.026,605980,0.89,-0.47,-0.21,-75.2,27.4,0.1,-2.1,26.9,30.3,101.121,35.35,0,1,0,0,1,NONE,52,252
2026-05-27T23:31:53.091,606032,0.91,-0.4,-0.19,-86.9,31.6,5.9,-3.2,29.2,31.0,101.121,35.35,0,1,0,1,2,NONE,38,213
2026-05-27T23:31:53.129,606078,0.89,-0.39,-0.22,-98.7,31.2,10.6,-4.4,32.4,30.5,101.121,35.35,0,1,0,1,2,NONE,39,197
2026-05-27T23:31:53.188,606130,0.89,-0.31,-0.23,-90.8,30.1,14.8,-5.2,35.5,31.7,101.123,35.35,0,1,0,1,2,NONE,54,198
2026-05-27T23:31:53.235,606178,0.91,-0.38,-0.19,-86.3,30.7,12.7,-6.2,37.7,30.8,101.118,35.35,0,1,0,1,2,NONE,28,142
2026-05-27T23:31:53.288,606230,0.88,-0.35,-0.17,-69.7,28.6,9.4,-7.6,41.3,29.6,101.121,35.35,0,1,0,1,2,NONE,39,194
2026-05-27T23:31:53.335,606282,0.89,-0.34,-0.13,-49.3,25.6,13.1,-8.0,42.6,29.7,101.118,35.35,0,1,0,1,2,NONE,30,190
2026-05-27T23:31:53.388,606330,0.9,-0.44,-0.04,-37.6,23.5,13.3,-9.3,43.8,29.4,101.123,35.36,0,1,0,1,2,NONE,48,215
2026-05-27T23:31:53.428,606378,0.88,-0.33,-0.27,-28.6,26.7,20.9,-9.6,44.9,28.5,101.122,35.36,0,1,0,1,2,NONE,28,141
2026-05-27T23:31:53.489,606430,0.8,-0.26,-0.15,-34.7,21.2,19.8,-9.7,46.5,27.3,101.122,35.36,0,1,0,0,1,NONE,38,147
2026-05-27T23:31:53.528,606480,0.91,-0.31,-0.18,-34.9,28.7,22.8,-10.5,47.2,26.6,101.122,35.35,0,1,0,0,1,NONE,45,123
2026-05-27T23:31:53.587,606528,0.92,-0.3,-0.17,-14.8,13.5,26.2,-11.0,47.8,26.6,101.123,35.35,0,1,1,1,3,NONE,19,105
2026-05-27T23:31:53.638,606580,0.97,-0.46,-0.26,-35.0,23.4,25.2,-10.8,47.7,27.5,101.124,35.35,0,1,1,1,3,NONE,41,150
2026-05-27T23:31:53.689,606632,1.13,-0.28,-0.46,-49.4,18.3,29.2,-11.6,49.2,24.6,101.123,35.35,0,1,0,0,1,NONE,30,183
2026-05-27T23:31:53.733,606678,0.94,-0.08,-0.24,-13.5,-2.1,31.3,-11.6,49.8,25.3,101.125,35.36,0,1,0,0,1,NONE,53,240
2026-05-27T23:31:53.781,606730,0.99,0.0,-0.37,4.9,0.8,28.7,-10.2,50.1,24.9,101.126,35.36,0,1,0,1,2,NONE,49,251
2026-05-27T23:31:53.830,606778,1.0,-0.0,-0.34,-33.3,5.3,8.8,-10.0,50.0,24.2,101.122,35.35,0,1,0,1,2,NONE,41,188
2026-05-27T23:31:53.889,606830,0.91,-0.0,-0.2,-12.7,-1.3,5.7,-10.4,50.6,23.3,101.122,35.35,0,1,0,1,2,NONE,40,145
2026-05-27T23:31:53.939,606882,0.9,-0.13,-0.25,-17.6,6.6,11.8,-9.7,50.9,22.5,101.126,35.36,0,1,0,1,2,NONE,42,194
2026-05-27T23:31:53.988,606930,0.91,-0.04,-0.3,-11.4,13.5,16.2,-10.3,51.0,22.8,101.123,35.35,0,1,0,1,2,NONE,58,193
2026-05-27T23:31:54.038,606981,0.94,-0.1,-0.26,-4.2,4.8,10.4,-9.9,51.6,22.6,101.123,35.35,0,1,0,1,2,NONE,44,159
2026-05-27T23:31:54.086,607028,0.9,-0.14,-0.18,-12.9,7.6,6.3,-10.1,51.9,23.0,101.122,35.36,0,1,0,1,2,NONE,29,133
2026-05-27T23:31:54.137,607082,0.95,-0.09,-0.24,8.0,4.1,6.0,-10.0,51.9,20.6,101.125,35.36,0,1,0,1,2,NONE,39,167
2026-05-27T23:31:54.183,607128,0.95,-0.11,-0.19,3.3,6.7,3.1,-9.8,51.8,21.9,101.122,35.35,0,1,0,0,1,NONE,43,191
2026-05-27T23:31:54.233,607178,0.91,-0.18,-0.22,-4.7,10.8,-0.5,-9.4,51.6,22.9,101.122,35.36,0,1,0,0,1,NONE,42,205
2026-05-27T23:31:54.277,607228,0.95,-0.11,-0.18,1.0,6.4,0.8,-10.3,51.9,22.4,101.12,35.35,0,1,0,0,1,NONE,31,152
2026-05-27T23:31:54.339,607280,1.0,-0.14,-0.14,1.9,6.2,-1.2,-10.0,52.1,22.5,101.122,35.36,0,1,0,0,1,NONE,51,178
2026-05-27T23:31:54.386,607328,0.94,-0.17,-0.11,-7.4,-0.9,-3.7,-10.2,52.4,22.2,101.122,35.35,0,1,0,1,2,NONE,89,198
2026-05-27T23:31:54.437,607380,0.95,-0.16,-0.2,-6.2,0.3,-8.4,-10.7,52.1,21.6,101.118,35.35,0,1,0,1,2,NONE,38,162
2026-05-27T23:31:54.487,607430,1.06,-0.12,-0.27,3.5,6.8,-5.7,-10.6,52.4,20.9,101.119,35.36,0,1,0,1,2,NONE,100,154
2026-05-27T23:31:54.533,607478,0.93,-0.31,-0.18,-15.5,-2.0,-9.9,-11.1,52.1,22.4,101.12,35.36,0,1,0,1,2,NONE,117,126
2026-05-27T23:31:54.580,607530,0.87,-0.11,-0.26,-14.6,1.2,-13.5,-10.8,53.3,21.1,101.12,35.36,0,1,0,0,1,NONE,95,125
2026-05-27T23:31:54.629,607581,0.87,-0.23,-0.28,-20.9,10.3,-9.3,-11.5,53.6,20.5,101.121,35.35,0,1,0,0,1,NONE,95,87
2026-05-27T23:31:54.673,607628,0.89,-0.33,-0.28,-37.6,13.7,-8.9,-11.5,53.5,20.9,101.121,35.36,0,1,0,1,2,NONE,71,93
2026-05-27T23:31:54.740,607682,0.93,-0.29,-0.25,-31.6,12.9,0.2,-12.6,54.4,18.6,101.123,35.35,0,1,0,1,2,NONE,23,96
2026-05-27T23:31:54.786,607728,1.08,-0.24,-0.21,-21.6,9.6,3.8,-12.6,55.8,18.0,101.122,35.35,0,1,0,1,2,NONE,32,136
2026-05-27T23:31:54.836,607778,0.93,-0.3,-0.16,-11.6,-3.0,3.7,-12.9,56.1,17.2,101.125,35.36,0,1,0,1,2,NONE,80,217
2026-05-27T23:31:54.887,607828,0.9,-0.32,-0.18,-24.1,2.3,2.5,-12.4,56.4,13.4,101.122,35.36,0,1,0,0,1,NONE,129,133
2026-05-27T23:31:54.933,607879,0.85,-0.25,-0.19,-14.0,5.1,1.2,-12.4,56.4,13.4,101.116,35.35,0,1,0,0,1,NONE,127,173
2026-05-27T23:31:54.982,607928,0.87,-0.33,-0.18,-17.3,11.7,2.6,-12.7,57.0,15.6,101.122,35.35,0,1,0,1,2,NONE,95,175
2026-05-27T23:31:55.040,607982,0.91,-0.25,-0.21,-7.0,8.5,1.2,-13.3,57.7,15.1,101.118,35.36,0,1,0,1,2,NONE,48,208
2026-05-27T23:31:55.074,608030,0.93,-0.35,-0.08,-4.2,3.5,4.6,-13.5,57.8,14.4,101.123,35.36,0,1,0,0,1,NONE,131,252
2026-05-27T23:31:55.144,608081,0.91,-0.33,-0.12,-12.8,18.0,4.6,-13.0,57.6,13.9,101.123,35.36,0,1,0,0,1,NONE,51,217
2026-05-27T23:31:55.187,608130,0.99,-0.25,-0.09,4.3,4.5,7.9,-13.2,57.8,14.1,101.123,35.36,0,1,0,0,1,NONE,53,271
2026-05-27T23:31:55.236,608178,0.92,-0.25,-0.08,14.6,-2.1,8.4,-13.2,57.6,13.9,101.121,35.35,0,1,0,0,1,NONE,57,254
2026-05-27T23:31:55.286,608230,0.99,-0.35,-0.21,12.1,5.0,6.9,-13.3,57.3,14.3,101.123,35.36,0,1,0,0,1,NONE,44,224
2026-05-27T23:31:55.333,608280,0.96,-0.32,-0.25,-3.0,2.2,10.6,-12.9,57.7,15.6,101.128,35.37,0,1,0,0,1,NONE,41,229
2026-05-27T23:31:55.379,608328,0.87,-0.22,-0.23,15.0,-0.4,8.5,-12.4,57.5,14.9,101.12,35.36,0,1,0,1,2,NONE,65,271
2026-05-27T23:31:55.432,608380,0.91,-0.22,-0.18,15.0,2.3,8.1,-12.5,56.8,15.3,101.124,35.35,0,1,0,1,2,NONE,57,283
2026-05-27T23:31:55.492,608432,0.85,-0.26,-0.25,11.5,3.2,12.8,-12.2,56.5,14.9,101.123,35.35,0,1,0,1,2,NONE,34,154
2026-05-27T23:31:55.523,608478,0.95,-0.15,-0.31,21.6,1.3,14.3,-12.0,56.4,15.4,101.125,35.35,0,1,0,1,2,NONE,73,189
2026-05-27T23:31:55.589,608530,0.86,-0.13,-0.3,17.5,4.8,10.3,-11.3,56.3,16.0,101.126,35.35,0,1,0,0,1,NONE,103,241
2026-05-27T23:31:55.636,608578,0.93,-0.12,-0.35,20.6,11.4,6.1,-11.5,55.4,18.7,101.126,35.36,0,1,0,0,1,NONE,81,205
2026-05-27T23:31:55.683,608630,1.04,-0.07,-0.32,35.1,6.7,10.3,-11.7,55.6,18.1,101.124,35.36,0,1,0,0,1,NONE,74,222
2026-05-27T23:31:55.729,608682,1.05,-0.28,-0.25,14.7,3.2,6.1,-11.8,54.4,18.4,101.121,35.37,0,1,0,0,1,NONE,51,184
2026-05-27T23:31:55.786,608729,0.95,-0.13,-0.25,5.7,0.5,5.6,-12.1,54.7,18.8,101.124,35.36,0,1,0,1,2,NONE,62,293
2026-05-27T23:31:55.836,608778,0.96,-0.13,-0.21,29.1,2.0,4.0,-11.4,54.0,19.2,101.122,35.36,0,1,0,1,2,NONE,53,283
2026-05-27T23:31:55.888,608830,0.92,-0.18,-0.24,26.9,3.4,2.7,-11.6,53.3,19.0,101.12,35.36,0,1,0,0,1,NONE,92,328
2026-05-27T23:31:55.937,608880,0.88,-0.13,-0.22,18.2,2.5,0.1,-11.9,53.3,21.7,101.122,35.36,0,1,0,0,1,NONE,133,253
2026-05-27T23:31:55.986,608928,0.92,-0.07,-0.2,22.0,5.1,1.7,-11.5,53.3,20.7,101.122,35.36,0,1,0,0,1,NONE,92,267
2026-05-27T23:31:56.034,608980,0.91,-0.1,-0.17,20.0,3.7,-4.3,-11.7,52.4,20.7,101.123,35.36,0,1,0,0,1,NONE,92,210
2026-05-27T23:31:56.078,609032,0.96,-0.17,-0.2,10.2,10.3,-8.1,-11.9,52.1,21.9,101.123,35.36,0,1,0,0,1,NONE,43,215
2026-05-27T23:31:56.130,609078,0.89,-0.1,-0.16,-1.5,6.1,-4.9,-12.3,52.3,21.5,101.124,35.36,0,1,0,0,1,NONE,59,195
2026-05-27T23:31:56.178,609130,0.99,-0.2,-0.12,4.5,14.0,-0.5,-12.4,52.5,21.1,101.118,35.36,0,1,0,0,1,NONE,47,200
2026-05-27T23:31:56.228,609178,0.99,-0.25,-0.25,-34.2,19.0,-4.4,-13.1,52.5,22.0,101.123,35.36,0,1,0,0,1,NONE,59,196
2026-05-27T23:31:56.288,609230,0.88,-0.08,-0.2,-29.2,-0.2,-4.4,-13.2,52.9,20.0,101.12,35.36,0,1,0,0,1,NONE,51,246
2026-05-27T23:31:56.335,609282,0.87,-0.13,-0.11,-32.1,9.6,-4.6,-13.5,53.9,18.6,101.123,35.36,0,1,0,0,1,NONE,59,195
2026-05-27T23:31:56.387,609329,0.9,0.05,-0.33,-31.3,11.1,-3.4,-13.7,55.1,19.4,101.119,35.36,0,1,0,0,1,NONE,53,199
2026-05-27T23:31:56.435,609378,1.18,-0.39,-0.5,5.4,34.2,-6.5,-14.7,54.6,19.3,101.122,35.35,0,1,0,0,1,NONE,34,188
2026-05-27T23:31:56.483,609430,0.9,-0.56,-0.37,-34.8,-4.2,12.5,-15.4,55.1,17.9,101.119,35.35,0,1,0,1,2,NONE,138,129
2026-05-27T23:31:56.531,609480,0.95,-0.22,-0.36,-41.4,13.5,4.2,-14.3,55.6,17.9,101.121,35.36,0,1,0,1,2,NONE,60,163
2026-05-27T23:31:56.587,609528,0.84,-0.4,-0.37,-42.2,8.1,1.2,-15.1,56.6,17.2,101.12,35.36,0,1,0,0,1,NONE,95,133
2026-05-27T23:31:56.637,609580,0.93,-0.2,-0.3,-0.2,9.1,7.6,-14.9,57.1,15.4,101.119,35.36,0,1,0,0,1,NONE,69,375
2026-05-27T23:31:56.690,609632,0.88,-0.39,-0.35,-16.5,7.9,3.3,-15.2,56.8,16.1,101.123,35.36,0,1,0,0,1,NONE,60,335
2026-05-27T23:31:56.735,609678,0.84,-0.29,-0.19,-30.2,-26.0,6.3,-14.6,57.3,15.1,101.125,35.36,0,1,0,0,1,NONE,181,880
2026-05-27T23:31:56.787,609730,0.85,-0.27,-0.35,-28.0,-41.7,11.4,-14.0,57.9,14.1,101.126,35.37,0,1,0,0,1,NONE,103,553
2026-05-27T23:31:56.831,609778,0.82,-0.28,-0.11,-34.0,2.0,7.8,-13.2,58.1,12.8,101.125,35.37,0,1,0,0,1,NONE,32,229
2026-05-27T23:31:56.887,609830,0.94,-0.21,-0.18,-22.9,19.4,11.5,-12.6,58.8,10.0,101.127,35.37,0,1,0,0,1,NONE,555,2625
2026-05-27T23:31:56.944,609881,0.91,-0.29,-0.07,-10.4,27.0,12.6,-13.0,59.0,10.1,101.125,35.36,0,1,0,0,1,NONE,458,2858
