pc_timestamp_iso,ms,ax,ay,az,gx,gy,gz,mx,my,mz,press,baro_t,prox,cr,cg,cb,light,gesture,mic,p2p
2026-05-27T23:39:06.383,1039343,0.98,-0.22,-0.2,31.6,-7.1,-12.5,-14.8,49.1,-33.4,101.124,36.47,0,0,0,0,0,NONE,189,292
2026-05-27T23:39:06.428,1039383,0.88,-0.29,-0.19,21.9,-16.6,-11.0,-16.3,50.4,-32.0,101.123,36.48,0,0,0,0,0,NONE,42,152
2026-05-27T23:39:06.479,1039434,0.9,-0.24,-0.18,23.7,-1.2,-9.3,-17.1,50.9,-32.4,101.125,36.49,0,0,0,0,0,NONE,60,164
2026-05-27T23:39:06.528,1039486,0.93,-0.23,-0.21,25.1,-4.6,-6.3,-17.9,52.2,-31.5,101.124,36.49,0,0,0,0,0,NONE,41,182
2026-05-27T23:39:06.576,1039532,0.86,-0.12,-0.13,27.4,12.0,-8.1,-18.8,53.1,-31.2,101.122,36.51,0,0,0,0,0,NONE,115,145
2026-05-27T23:39:06.629,1039584,0.94,-0.2,-0.15,33.8,15.2,-9.5,-19.0,54.1,-30.7,101.119,36.5,0,0,0,0,0,NONE,156,164
2026-05-27T23:39:06.673,1039632,1.01,-0.23,-0.2,56.2,12.0,-5.9,-19.9,55.7,-31.6,101.121,36.51,0,0,0,0,0,NONE,108,152
2026-05-27T23:39:06.729,1039684,0.86,-0.22,-0.21,29.3,15.0,-4.2,-20.0,57.1,-30.8,101.125,36.51,0,0,0,0,0,NONE,75,265
2026-05-27T23:39:06.775,1039734,0.94,-0.11,-0.13,45.8,17.5,-2.1,-20.0,58.0,-29.6,101.129,36.52,0,0,0,0,0,NONE,47,260
2026-05-27T23:39:06.822,1039783,0.96,-0.08,-0.2,66.5,26.9,4.1,-20.3,59.6,-29.5,101.13,36.52,0,0,0,0,0,NONE,131,295
2026-05-27T23:39:06.867,1039834,1.01,-0.4,-0.32,68.4,29.1,5.1,-19.8,61.2,-27.6,101.122,36.52,0,0,0,0,0,NONE,148,184
2026-05-27T23:39:06.931,1039886,0.91,-0.37,-0.44,45.5,52.4,18.6,-19.5,63.8,-25.4,101.129,36.52,0,0,0,0,0,NONE,62,259
2026-05-27T23:39:06.974,1039932,0.95,-0.03,-0.4,78.7,30.2,9.2,-18.7,65.5,-24.3,101.125,36.53,0,0,0,0,0,NONE,121,642
2026-05-27T23:39:07.030,1039984,0.91,-0.2,-0.51,77.3,25.1,2.5,-17.6,67.6,-23.4,101.124,36.53,0,0,0,0,0,NONE,76,367
2026-05-27T23:39:07.078,1040032,0.87,-0.18,-0.46,63.0,19.3,6.3,-17.4,68.9,-20.1,101.12,36.53,0,0,0,0,0,NONE,110,235
2026-05-27T23:39:07.130,1040084,0.91,-0.08,-0.45,46.7,21.4,7.1,-17.1,70.9,-16.0,101.123,36.53,0,0,0,0,0,NONE,132,228
2026-05-27T23:39:07.174,1040133,0.93,-0.0,-0.43,22.2,16.1,4.0,-17.1,70.9,-16.0,101.125,36.54,0,0,0,0,0,NONE,66,402
2026-05-27T23:39:07.218,1040182,0.88,0.06,-0.41,15.8,17.5,-0.9,-17.3,73.1,-14.5,101.122,36.54,0,0,0,0,0,NONE,58,195
2026-05-27T23:39:07.277,1040234,0.94,0.15,-0.52,24.4,6.4,-6.8,-18.5,73.8,-14.6,101.126,36.54,0,0,0,0,0,NONE,51,201
2026-05-27T23:39:07.319,1040282,0.86,0.06,-0.46,27.0,-4.2,-10.0,-19.1,74.2,-14.3,101.122,36.54,0,0,0,0,0,NONE,81,207
2026-05-27T23:39:07.379,1040334,0.89,0.09,-0.45,28.7,-3.7,-9.8,-20.5,74.7,-13.4,101.127,36.55,0,0,0,0,0,NONE,62,139
2026-05-27T23:39:07.427,1040384,0.85,0.11,-0.42,20.0,-5.8,-12.8,-21.6,74.3,-12.0,101.123,36.54,0,0,0,0,0,NONE,39,143
2026-05-27T23:39:07.477,1040432,0.89,0.05,-0.4,23.0,-4.5,-11.5,-22.3,75.0,-10.4,101.124,36.55,0,0,0,0,0,NONE,44,246
2026-05-27T23:39:07.523,1040484,0.89,-0.06,-0.36,7.6,-10.1,-9.2,-22.9,75.2,-9.5,101.127,36.55,0,0,0,0,0,NONE,28,215
2026-05-27T23:39:07.576,1040532,0.99,0.05,-0.43,2.1,-10.3,-8.7,-24.2,75.7,-8.4,101.121,36.55,0,0,0,0,0,NONE,54,171
2026-05-27T23:39:07.623,1040584,0.89,-0.03,-0.37,-30.8,17.2,-5.6,-25.0,76.3,-8.6,101.128,36.55,0,0,0,0,0,NONE,82,153
2026-05-27T23:39:07.671,1040632,0.89,0.03,-0.65,1.0,3.9,0.5,-25.7,76.3,-8.7,101.123,36.55,0,0,0,0,0,NONE,65,138
2026-05-27T23:39:07.715,1040684,0.91,0.05,-0.38,24.2,-7.4,-0.5,-25.8,76.3,-6.4,101.126,36.55,0,0,0,0,0,NONE,41,102
2026-05-27T23:39:07.779,1040734,0.97,-0.18,-0.51,-1.0,-6.3,-11.0,-25.9,75.6,-4.7,101.125,36.55,0,0,0,0,0,NONE,63,157
2026-05-27T23:39:07.828,1040782,0.86,-0.1,-0.35,14.7,-9.3,-11.5,-26.6,75.7,-4.0,101.123,36.55,0,0,0,0,0,NONE,47,206
2026-05-27T23:39:07.879,1040834,0.94,-0.1,-0.39,11.2,-9.7,-16.1,-27.6,75.2,-3.3,101.125,36.55,0,0,0,0,0,NONE,39,168
2026-05-27T23:39:07.928,1040886,0.92,-0.19,-0.38,21.6,-16.8,-22.5,-28.1,74.8,-0.8,101.13,36.55,0,0,0,0,0,NONE,49,225
2026-05-27T23:39:07.977,1040932,0.91,-0.18,-0.34,33.3,-18.7,-16.9,-29.6,74.1,2.3,101.125,36.55,0,0,0,0,0,NONE,67,286
2026-05-27T23:39:08.019,1040984,0.94,-0.13,-0.32,25.7,-16.1,-16.4,-29.9,73.5,3.0,101.127,36.55,0,0,0,0,0,NONE,50,225
2026-05-27T23:39:08.066,1041032,0.84,-0.19,-0.27,6.4,-10.1,-18.1,-30.5,73.3,4.1,101.126,36.56,0,0,0,0,0,NONE,90,184
2026-05-27T23:39:08.129,1041084,0.95,-0.13,-0.28,6.5,-15.2,-13.2,-31.8,72.8,4.7,101.13,36.55,0,1,0,0,1,NONE,207,261
2026-05-27T23:39:08.180,1041136,0.92,-0.18,-0.19,18.4,-15.3,-4.6,-32.0,72.7,6.4,101.133,36.56,0,1,0,0,1,NONE,391,370
2026-05-27T23:39:08.228,1041184,0.93,-0.14,-0.19,32.3,-14.0,-3.7,-32.2,71.9,7.8,101.138,36.56,0,0,0,0,0,NONE,377,163
2026-05-27T23:39:08.277,1041232,0.97,-0.24,-0.21,27.0,-14.0,-1.0,-32.2,71.3,10.1,101.132,36.56,0,0,0,0,0,NONE,175,124
2026-05-27T23:39:08.325,1041284,0.99,-0.14,-0.19,40.2,-24.7,7.4,-31.3,70.3,12.3,101.136,36.56,0,1,0,0,1,NONE,369,194
2026-05-27T23:39:08.374,1041334,0.86,-0.04,-0.05,36.3,-32.3,14.0,-30.4,69.5,15.7,101.129,36.55,0,1,0,0,1,NONE,223,128
2026-05-27T23:39:08.421,1041382,1.04,-0.34,-0.41,49.5,5.9,-2.1,-29.1,68.5,16.6,101.129,36.56,0,1,0,0,1,NONE,272,119
2026-05-27T23:39:08.471,1041434,1.11,0.12,-0.36,13.0,-11.2,-2.1,-28.9,67.1,17.8,101.125,36.55,0,1,0,0,1,NONE,85,449
2026-05-27T23:39:08.533,1041486,0.8,-0.27,-0.18,65.1,-9.0,-8.4,-28.5,66.0,20.0,101.123,36.56,0,1,0,0,1,NONE,42,248
2026-05-27T23:39:08.567,1041532,1.06,-0.09,-0.19,34.2,11.0,-7.0,-28.0,64.0,22.5,101.122,36.56,0,1,0,0,1,NONE,83,254
2026-05-27T23:39:08.629,1041584,0.99,-0.17,-0.26,7.8,5.0,-6.0,-28.7,63.3,23.1,101.12,36.55,0,1,0,0,1,NONE,239,280
2026-05-27T23:39:08.677,1041632,0.89,-0.07,-0.25,13.2,2.2,-2.4,-28.3,62.0,23.7,101.122,36.56,0,1,0,0,1,NONE,347,180
2026-05-27T23:39:08.723,1041684,0.9,-0.08,-0.24,10.4,3.5,0.4,-28.4,61.2,24.2,101.127,36.56,0,1,0,0,1,NONE,313,233
2026-05-27T23:39:08.775,1041736,0.93,-0.08,-0.24,4.6,7.4,-1.4,-28.1,61.0,23.8,101.123,36.55,0,1,0,0,1,NONE,31,148
2026-05-27T23:39:08.818,1041784,0.94,-0.15,-0.23,-3.4,14.6,0.8,-27.9,59.8,24.1,101.125,36.55,0,1,0,0,1,NONE,62,126
2026-05-27T23:39:08.869,1041832,0.96,-0.09,-0.16,6.6,1.3,-3.0,-27.6,59.8,22.9,101.126,36.56,0,1,0,0,1,NONE,138,164
2026-05-27T23:39:08.914,1041884,0.93,-0.12,-0.1,-2.6,2.1,-3.9,-27.2,59.5,22.2,101.124,36.55,0,1,0,0,1,NONE,32,143
2026-05-27T23:39:08.978,1041934,1.0,-0.15,-0.08,-7.2,1.2,-11.2,-27.1,59.3,22.9,101.127,36.56,0,1,0,0,1,NONE,71,120
2026-05-27T23:39:09.027,1041983,0.94,-0.21,-0.06,-19.2,-1.0,-8.1,-26.9,59.3,22.7,101.122,36.55,0,1,0,0,1,NONE,67,237
2026-05-27T23:39:09.075,1042034,1.06,-0.18,-0.24,-16.8,14.0,-1.0,-26.9,59.5,20.9,101.124,36.56,0,1,0,0,1,NONE,65,135
2026-05-27T23:39:09.131,1042086,0.8,-0.15,-0.37,-3.3,1.2,15.1,-26.7,59.5,21.0,101.124,36.56,0,1,0,0,1,NONE,78,208
2026-05-27T23:39:09.178,1042132,1.21,-0.19,-0.35,16.8,10.7,11.7,-25.0,59.0,20.2,101.123,36.56,0,1,0,0,1,NONE,164,195
2026-05-27T23:39:09.230,1042184,0.86,-0.22,-0.24,17.8,-9.9,3.1,-24.8,58.4,20.3,101.126,36.56,0,1,0,0,1,NONE,105,246
2026-05-27T23:39:09.267,1042232,0.97,-0.31,-0.23,3.8,-4.3,-4.6,-24.0,57.9,19.3,101.127,36.56,0,1,0,0,1,NONE,71,252
2026-05-27T23:39:09.329,1042285,0.86,-0.3,-0.16,3.4,-1.9,-4.9,-23.6,58.0,20.6,101.127,36.56,0,1,0,0,1,NONE,98,225
2026-05-27T23:39:09.377,1042336,0.9,-0.23,-0.2,-7.3,4.2,-1.6,-23.1,57.2,19.8,101.125,36.56,0,1,0,0,1,NONE,109,193
2026-05-27T23:39:09.431,1042384,0.92,-0.26,-0.18,-16.8,11.0,1.7,-23.2,57.3,19.9,101.125,36.56,0,1,0,0,1,NONE,57,231
2026-05-27T23:39:09.474,1042432,0.96,-0.16,-0.2,-9.9,4.6,0.9,-23.2,57.9,17.4,101.126,36.56,0,1,0,0,1,NONE,42,209
2026-05-27T23:39:09.521,1042484,0.91,-0.22,-0.22,-6.2,0.2,2.2,-22.4,57.3,17.9,101.128,36.56,0,1,0,0,1,NONE,50,275
2026-05-27T23:39:09.574,1042534,0.91,-0.26,-0.18,-7.0,10.4,5.7,-22.0,57.8,18.1,101.125,36.56,0,1,0,0,1,NONE,39,212
2026-05-27T23:39:09.622,1042582,0.95,-0.28,-0.22,-2.0,-1.9,10.7,-21.5,57.6,17.1,101.123,36.55,0,1,0,0,1,NONE,54,173
2026-05-27T23:39:09.670,1042634,0.94,-0.2,-0.08,-9.5,-10.3,10.8,-21.0,57.6,17.6,101.122,36.55,0,1,0,0,1,NONE,63,157
2026-05-27T23:39:09.732,1042686,0.92,-0.23,-0.03,-7.8,-2.9,11.6,-21.0,57.4,16.5,101.128,36.55,0,1,0,0,1,NONE,51,244
2026-05-27T23:39:09.777,1042732,0.99,-0.3,-0.19,-3.1,10.0,14.5,-20.3,58.5,16.8,101.127,36.55,0,1,0,0,1,NONE,98,380
2026-05-27T23:39:09.829,1042785,1.01,-0.2,-0.37,-21.5,13.2,7.4,-19.5,58.5,16.1,101.124,36.56,0,1,0,0,1,NONE,86,269
2026-05-27T23:39:09.877,1042832,1.0,-0.04,-0.16,7.3,1.3,9.8,-19.0,58.2,15.8,101.123,36.56,0,1,0,0,1,NONE,50,201
2026-05-27T23:39:09.926,1042884,0.9,-0.14,-0.22,14.1,6.6,6.7,-18.8,57.4,14.3,101.124,36.55,0,1,0,0,1,NONE,112,458
2026-05-27T23:39:09.974,1042936,0.99,-0.03,-0.23,10.3,12.1,4.9,-18.5,57.8,14.6,101.122,36.55,0,1,0,0,1,NONE,40,212
2026-05-27T23:39:10.025,1042984,0.94,-0.13,-0.11,1.7,13.7,2.9,-18.5,58.2,15.5,101.122,36.55,0,1,0,0,1,NONE,86,424
2026-05-27T23:39:10.072,1043032,0.98,-0.11,-0.28,-12.4,23.4,4.6,-18.4,57.7,14.9,101.121,36.55,0,1,0,0,1,NONE,101,310
2026-05-27T23:39:10.130,1043084,0.9,-0.06,-0.19,-3.1,6.8,8.7,-18.4,58.6,14.6,101.121,36.56,0,1,0,0,1,NONE,141,262
2026-05-27T23:39:10.178,1043134,0.93,-0.07,-0.19,-5.6,18.7,10.1,-18.1,58.6,13.5,101.118,36.55,0,1,0,0,1,NONE,128,229
2026-05-27T23:39:10.226,1043183,0.94,-0.07,-0.22,-2.8,16.1,3.0,-18.1,58.6,13.7,101.119,36.55,0,0,0,0,0,NONE,154,385
2026-05-27T23:39:10.274,1043234,0.95,-0.14,-0.16,0.3,12.4,-2.1,-17.9,58.9,13.8,101.122,36.56,0,0,0,0,0,NONE,179,499
2026-05-27T23:39:10.322,1043286,0.99,-0.1,-0.18,-4.6,9.9,-9.0,-17.5,58.9,12.6,101.121,36.55,0,1,0,0,1,NONE,120,280
2026-05-27T23:39:10.372,1043332,1.0,-0.19,-0.16,-0.5,-2.7,-13.9,-17.5,58.9,12.9,101.118,36.54,0,1,0,0,1,NONE,148,185
2026-05-27T23:39:10.417,1043385,0.99,-0.22,-0.14,-10.7,-5.6,-17.1,-17.6,58.9,13.2,101.123,36.55,0,0,0,0,0,NONE,98,292
2026-05-27T23:39:10.469,1043432,0.85,-0.25,-0.43,-15.9,-1.3,-7.4,-17.6,59.6,11.7,101.122,36.55,0,0,0,0,0,NONE,24,142
2026-05-27T23:39:10.529,1043485,1.05,-0.05,-0.26,10.3,-4.1,1.3,-17.1,59.7,12.0,101.126,36.55,0,0,0,0,0,NONE,64,139
2026-05-27T23:39:10.579,1043534,0.96,-0.25,-0.37,16.4,-4.9,-11.2,-17.2,59.4,12.5,101.125,36.55,0,0,0,0,0,NONE,90,112
2026-05-27T23:39:10.626,1043582,0.89,-0.3,-0.17,6.3,-4.2,-15.7,-17.1,58.7,12.5,101.124,36.55,0,0,0,0,0,NONE,145,117
2026-05-27T23:39:10.678,1043634,1.01,-0.26,-0.18,36.3,-8.1,-11.6,-17.0,58.6,13.9,101.122,36.55,0,0,0,0,0,NONE,176,153
2026-05-27T23:39:10.722,1043683,0.84,-0.24,-0.21,23.6,-9.8,-13.6,-17.0,58.6,13.9,101.125,36.55,0,1,0,0,1,NONE,93,123
2026-05-27T23:39:10.774,1043734,0.91,-0.21,-0.26,11.3,-1.3,-11.1,-17.3,58.2,14.3,101.122,36.55,0,1,0,0,1,NONE,24,146
2026-05-27T23:39:10.822,1043786,0.92,-0.26,-0.23,16.4,-4.5,-4.6,-16.7,58.3,14.0,101.123,36.55,0,0,0,0,0,NONE,93,186
2026-05-27T23:39:10.870,1043834,0.89,-0.34,-0.2,17.9,-0.5,1.6,-16.8,57.2,14.8,101.125,36.55,0,0,0,0,0,NONE,30,143
2026-05-27T23:39:10.919,1043882,0.92,-0.3,-0.2,23.9,0.9,2.2,-16.5,57.5,14.6,101.127,36.56,0,1,0,0,1,NONE,61,272
2026-05-27T23:39:10.978,1043934,0.9,-0.33,-0.13,43.8,-2.5,11.0,-16.1,57.0,15.7,101.127,36.55,0,1,0,0,1,NONE,57,332
2026-05-27T23:39:11.031,1043986,0.93,-0.36,-0.1,45.7,0.9,12.9,-15.5,56.2,17.4,101.124,36.55,0,1,0,0,1,NONE,51,249
2026-05-27T23:39:11.075,1044032,0.94,-0.31,-0.15,47.9,4.2,9.9,-15.1,55.4,18.5,101.13,36.55,0,1,0,0,1,NONE,40,179
2026-05-27T23:39:11.124,1044086,0.94,-0.32,-0.18,44.6,5.3,7.6,-14.7,55.1,19.3,101.128,36.55,0,1,0,0,1,NONE,47,180
2026-05-27T23:39:11.175,1044132,0.94,-0.27,-0.27,37.5,14.7,6.7,-14.0,53.2,19.2,101.127,36.55,0,1,0,0,1,NONE,20,140
2026-05-27T23:39:11.221,1044184,0.91,-0.23,-0.28,14.6,7.3,15.7,-14.4,53.2,20.3,101.127,36.55,0,0,0,0,0,NONE,61,174
2026-05-27T23:39:11.276,1044236,1.01,-0.14,-0.41,8.4,15.1,24.2,-13.8,53.2,20.2,101.125,36.55,0,0,0,0,0,NONE,76,237
2026-05-27T23:39:11.321,1044284,0.89,-0.01,-0.3,36.6,3.5,37.7,-12.2,52.5,21.1,101.127,36.55,0,0,0,0,0,NONE,92,209
2026-05-27T23:39:11.370,1044332,0.91,0.1,-0.3,33.0,5.3,36.8,-11.5,51.3,23.0,101.13,36.55,0,0,0,0,0,NONE,118,287
2026-05-27T23:39:11.429,1044384,0.9,0.13,-0.31,44.9,7.9,25.4,-10.6,50.4,23.2,101.13,36.55,0,0,0,0,0,NONE,44,189
2026-05-27T23:39:11.477,1044432,0.97,0.09,-0.36,36.1,19.2,13.6,-10.4,49.4,22.9,101.132,36.55,0,0,0,0,0,NONE,94,128
2026-05-27T23:39:11.523,1044485,0.97,-0.04,-0.29,27.8,9.9,9.2,-10.5,49.0,25.0,101.13,36.55,0,0,0,0,0,NONE,199,181
2026-05-27T23:39:11.581,1044534,0.98,0.04,-0.25,14.6,12.3,7.3,-10.7,49.0,24.9,101.13,36.55,0,0,0,0,0,NONE,177,108
2026-05-27T23:39:11.619,1044582,1.02,-0.01,-0.21,1.0,9.3,5.2,-10.7,48.1,24.8,101.129,36.55,0,0,0,0,0,NONE,117,276
2026-05-27T23:39:11.676,1044634,1.0,0.05,-0.24,-0.4,6.2,-1.1,-10.8,48.5,25.5,101.128,36.55,0,0,0,0,0,NONE,94,260
2026-05-27T23:39:11.716,1044686,0.9,0.0,-0.26,-11.2,1.0,1.0,-11.0,48.9,24.9,101.126,36.55,0,0,0,0,0,NONE,35,218
2026-05-27T23:39:11.765,1044732,0.97,0.04,-0.26,-3.4,-3.2,-3.4,-10.3,49.4,24.7,101.125,36.54,0,0,0,0,0,NONE,41,222
2026-05-27T23:39:11.829,1044784,0.87,0.01,-0.21,-10.6,-8.7,-4.9,-9.8,49.2,22.9,101.123,36.55,0,0,0,0,0,NONE,96,203
2026-05-27T23:39:11.877,1044832,0.9,-0.02,-0.2,-9.7,1.4,-9.4,-9.9,49.6,23.7,101.124,36.54,0,0,0,0,0,NONE,212,127
2026-05-27T23:39:11.929,1044884,0.96,-0.0,-0.14,-15.4,4.9,-11.7,-10.7,50.4,23.4,101.125,36.54,0,1,0,0,1,NONE,148,109
2026-05-27T23:39:11.980,1044935,0.84,-0.03,-0.24,-23.4,4.6,-14.5,-10.0,50.9,23.4,101.126,36.54,0,1,0,0,1,NONE,103,83
2026-05-27T23:39:12.026,1044984,0.96,0.0,-0.33,-9.0,12.0,-5.1,-10.6,50.8,22.4,101.127,36.55,0,0,0,0,0,NONE,67,149
2026-05-27T23:39:12.073,1045032,0.91,-0.15,-0.35,-4.0,30.5,-13.7,-10.8,51.1,21.5,101.129,36.55,0,0,0,0,0,NONE,44,116
2026-05-27T23:39:12.122,1045084,0.83,-0.05,-0.28,11.7,52.2,-6.7,-12.4,50.9,20.9,101.124,36.55,0,0,0,0,0,NONE,149,378
2026-05-27T23:39:12.168,1045134,1.56,-0.22,-0.7,-6.7,71.5,-1.8,-13.4,51.1,23.5,101.127,36.54,0,0,0,0,0,NONE,44,140
2026-05-27T23:39:12.219,1045183,1.73,-0.24,-0.82,42.6,67.5,-9.0,-15.7,50.9,22.7,101.125,36.55,0,0,0,0,0,NONE,45,134
2026-05-27T23:39:12.279,1045234,0.72,-0.04,-0.36,-36.3,28.8,-1.7,-17.4,51.0,22.7,101.125,36.55,0,0,0,0,0,NONE,50,114
2026-05-27T23:39:12.330,1045286,0.96,-0.23,-0.56,-13.3,10.6,-9.5,-17.9,51.5,21.4,101.122,36.55,0,0,0,0,0,NONE,47,117
2026-05-27T23:39:12.376,1045332,0.73,-0.16,-0.5,-34.7,-10.6,-6.5,-18.2,53.1,19.1,101.122,36.55,0,0,0,0,0,NONE,57,145
2026-05-27T23:39:12.424,1045384,0.79,-0.28,-0.55,12.9,-18.3,1.8,-17.6,52.8,19.6,101.122,36.55,0,0,0,0,0,NONE,41,202
2026-05-27T23:39:12.477,1045432,0.63,-0.18,-0.46,7.1,-20.6,2.6,-17.3,53.0,20.2,101.12,36.54,0,0,0,0,0,NONE,47,170
2026-05-27T23:39:12.521,1045484,0.82,-0.23,-0.47,15.0,-23.7,-4.2,-16.8,53.4,17.3,101.119,36.54,0,0,0,0,0,NONE,38,201
2026-05-27T23:39:12.571,1045535,0.73,-0.23,-0.38,13.2,-24.8,14.2,-16.4,52.6,19.1,101.119,36.55,0,0,0,0,0,NONE,36,197
2026-05-27T23:39:12.620,1045584,0.69,-0.13,-0.4,12.6,-17.9,5.1,-15.5,52.7,18.4,101.119,36.55,0,0,0,0,0,NONE,53,145
2026-05-27T23:39:12.667,1045632,0.78,-0.13,-0.36,17.4,-18.2,12.0,-15.3,52.8,19.5,101.119,36.54,0,0,0,0,0,NONE,93,102
2026-05-27T23:39:12.728,1045684,0.8,-0.15,-0.33,2.8,-7.9,12.1,-14.9,52.5,19.2,101.119,36.54,0,0,0,0,0,NONE,89,155
2026-05-27T23:39:12.778,1045734,0.83,-0.14,-0.32,-9.6,-15.2,10.0,-14.4,52.1,18.0,101.124,36.54,0,0,0,0,0,NONE,77,185
2026-05-27T23:39:12.827,1045783,0.81,-0.0,-0.32,0.3,3.7,13.3,-13.7,52.5,17.3,101.124,36.54,0,1,0,0,1,NONE,48,237
2026-05-27T23:39:12.877,1045834,0.89,-0.02,-0.34,20.8,-4.9,27.2,-13.1,52.0,17.7,101.123,36.54,0,1,0,0,1,NONE,49,245
2026-05-27T23:39:12.924,1045886,0.96,0.05,-0.21,8.5,-22.5,14.6,-12.2,51.2,18.0,101.12,36.54,0,0,0,0,0,NONE,49,219
2026-05-27T23:39:12.973,1045932,0.93,-0.05,-0.19,1.5,-9.9,3.4,-11.5,52.1,17.7,101.122,36.54,0,0,0,0,0,NONE,115,203
2026-05-27T23:39:13.018,1045984,1.06,-0.01,-0.21,7.0,-16.8,-5.0,-11.9,51.1,16.9,101.124,36.54,0,1,0,0,1,NONE,101,210
2026-05-27T23:39:13.069,1046032,0.84,-0.23,-0.36,-13.4,-3.7,-5.6,-11.1,51.4,16.7,101.122,36.54,0,1,0,0,1,NONE,88,229
2026-05-27T23:39:13.129,1046084,0.98,0.02,-0.34,3.5,-17.9,-5.9,-10.9,52.1,16.3,101.119,36.53,0,1,0,0,1,NONE,40,113
2026-05-27T23:39:13.180,1046136,0.9,-0.2,-0.24,-9.0,-2.4,-1.2,-10.6,52.2,17.3,101.123,36.54,0,1,0,0,1,NONE,67,209
2026-05-27T23:39:13.228,1046184,1.01,-0.03,-0.39,8.7,-8.8,-3.8,-11.7,52.7,16.5,101.12,36.53,0,0,0,0,0,NONE,101,324
2026-05-27T23:39:13.277,1046232,0.95,-0.14,-0.21,24.0,-15.5,-0.1,-10.9,51.9,15.2,101.125,36.54,0,0,0,0,0,NONE,84,506
2026-05-27T23:39:13.330,1046284,0.9,-0.12,-0.24,10.9,-11.9,-2.4,-10.5,51.9,14.5,101.124,36.54,0,0,0,0,0,NONE,39,209
2026-05-27T23:39:13.373,1046334,0.92,-0.09,-0.22,14.9,-9.2,-1.8,-10.5,51.5,14.5,101.12,36.53,0,0,0,0,0,NONE,102,336
2026-05-27T23:39:13.417,1046382,0.98,-0.06,-0.18,17.0,-6.3,-2.7,-10.1,51.5,15.9,101.125,36.54,0,1,0,0,1,NONE,64,362
2026-05-27T23:39:13.468,1046434,0.91,-0.19,-0.19,6.9,-9.9,-4.7,-9.7,51.8,15.5,101.123,36.54,0,1,0,0,1,NONE,77,297
2026-05-27T23:39:13.530,1046486,0.91,-0.08,-0.12,16.7,-2.6,-2.8,-9.6,51.9,15.8,101.122,36.54,0,1,0,0,1,NONE,86,353
2026-05-27T23:39:13.562,1046532,0.94,-0.07,-0.13,8.4,1.5,-4.9,-10.3,51.5,15.4,101.116,36.53,0,1,0,0,1,NONE,85,347
2026-05-27T23:39:13.628,1046584,0.98,-0.19,-0.08,13.0,-5.2,-6.2,-10.6,51.7,16.0,101.12,36.52,0,1,0,0,1,NONE,105,483
2026-05-27T23:39:13.677,1046632,0.96,-0.2,-0.03,-0.3,-8.5,-7.8,-10.0,51.9,14.6,101.122,36.53,0,1,0,0,1,NONE,83,487
2026-05-27T23:39:13.724,1046684,1.08,-0.17,-0.14,-9.5,3.4,-3.1,-10.1,51.8,14.2,101.124,36.53,0,1,0,0,1,NONE,91,403
2026-05-27T23:39:13.773,1046735,0.9,-0.17,-0.15,6.0,-4.6,6.7,-10.6,52.5,14.6,101.118,36.53,0,1,0,0,1,NONE,76,413
2026-05-27T23:39:13.820,1046784,0.95,-0.16,-0.12,3.2,7.6,2.7,-10.6,53.1,13.0,101.115,36.53,0,1,0,0,1,NONE,71,517
2026-05-27T23:39:13.868,1046832,0.96,-0.18,-0.24,-0.4,6.9,-0.2,-10.7,53.2,12.5,101.118,36.52,0,1,0,0,1,NONE,67,313
2026-05-27T23:39:13.927,1046884,0.95,-0.2,-0.15,16.2,-4.8,0.2,-10.8,52.9,13.1,101.119,36.53,0,1,0,0,1,NONE,80,447
2026-05-27T23:39:13.978,1046934,0.93,-0.29,-0.1,7.1,0.4,-1.6,-10.6,52.7,13.4,101.118,36.53,0,1,0,0,1,NONE,65,288
2026-05-27T23:39:14.026,1046982,0.96,-0.17,-0.18,27.5,6.8,-2.7,-10.7,52.9,13.4,101.12,36.53,0,1,0,0,1,NONE,77,480
2026-05-27T23:39:14.076,1047034,0.88,-0.29,-0.17,-3.2,7.3,0.1,-10.6,52.5,13.8,101.12,36.52,0,1,0,0,1,NONE,83,286
2026-05-27T23:39:14.120,1047086,0.89,-0.26,-0.16,-8.2,19.6,2.0,-11.1,52.5,13.6,101.119,36.53,0,1,0,0,1,NONE,80,406
2026-05-27T23:39:14.173,1047132,0.93,-0.17,-0.17,-6.3,28.3,3.8,-10.9,52.8,13.6,101.118,36.53,0,1,0,0,1,NONE,82,405
2026-05-27T23:39:14.221,1047184,0.95,-0.11,-0.17,3.2,22.2,5.2,-11.6,53.6,11.6,101.125,36.53,0,1,0,0,1,NONE,74,337
2026-05-27T23:39:14.265,1047233,0.91,-0.15,-0.14,16.8,20.3,7.8,-11.6,53.6,11.6,101.123,36.53,0,1,0,0,1,NONE,74,362
2026-05-27T23:39:14.329,1047284,1.05,-0.1,-0.18,8.8,11.2,2.3,-11.6,53.4,13.1,101.124,36.53,0,0,0,0,0,NONE,36,179
2026-05-27T23:39:14.377,1047335,1.02,-0.0,-0.16,30.9,3.5,3.3,-11.7,53.7,14.3,101.12,36.53,0,0,0,0,0,NONE,54,359
2026-05-27T23:39:14.424,1047384,1.0,0.02,-0.06,21.4,-11.6,5.7,-11.7,54.2,14.3,101.124,36.53,0,1,0,0,1,NONE,84,377
2026-05-27T23:39:14.476,1047432,1.01,-0.03,-0.16,32.8,-20.1,5.6,-11.4,54.6,13.3,101.123,36.52,0,1,0,0,1,NONE,45,242
2026-05-27T23:39:14.524,1047484,1.04,-0.41,-0.25,-14.5,-1.9,-4.8,-11.4,54.6,14.0,101.122,36.52,0,1,0,0,1,NONE,84,241
2026-05-27T23:39:14.572,1047534,1.18,-0.05,-0.3,-1.2,-12.4,-0.8,-11.9,55.0,13.4,101.123,36.52,0,1,0,0,1,NONE,66,312
2026-05-27T23:39:14.616,1047582,0.91,-0.09,-0.17,18.9,-25.3,4.1,-11.7,55.9,14.4,101.127,36.53,0,1,0,0,1,NONE,58,201
2026-05-27T23:39:14.671,1047634,0.82,-0.08,-0.24,9.1,-3.5,0.1,-11.9,55.4,13.2,101.12,36.53,0,1,0,0,1,NONE,69,157
2026-05-27T23:39:14.731,1047686,0.93,-0.07,-0.27,16.7,-3.1,-4.1,-11.9,56.3,14.7,101.122,36.53,0,1,0,0,1,NONE,49,223
2026-05-27T23:39:14.766,1047732,0.93,-0.23,-0.2,-10.6,0.5,-8.5,-12.7,55.8,13.8,101.12,36.52,0,1,0,0,1,NONE,38,184
2026-05-27T23:39:14.825,1047784,1.03,-0.16,-0.23,-3.4,-0.3,-2.6,-12.6,56.3,14.9,101.122,36.52,0,1,0,0,1,NONE,55,215
2026-05-27T23:39:14.873,1047832,0.94,-0.14,-0.17,3.7,-4.1,0.7,-12.5,56.0,12.6,101.117,36.52,0,1,0,0,1,NONE,62,196
2026-05-27T23:39:14.925,1047884,0.87,-0.16,-0.09,9.8,3.3,4.0,-12.5,56.5,14.5,101.118,36.52,0,1,0,0,1,NONE,98,218
2026-05-27T23:39:14.976,1047936,0.96,-0.2,-0.1,3.7,8.7,2.1,-13.0,56.4,15.2,101.122,36.52,0,1,0,0,1,NONE,48,199
2026-05-27T23:39:15.020,1047984,0.94,-0.17,-0.06,3.7,6.1,-3.5,-13.2,56.6,15.1,101.116,36.52,0,1,0,0,1,NONE,65,212
2026-05-27T23:39:15.069,1048032,0.91,-0.17,0.01,0.5,1.0,-9.7,-14.1,56.2,15.7,101.118,36.52,0,1,0,0,1,NONE,27,150
2026-05-27T23:39:15.129,1048084,0.94,-0.16,0.03,-5.6,-2.6,-12.6,-14.3,57.2,15.0,101.12,36.52,0,1,0,0,1,NONE,42,196
2026-05-27T23:39:15.177,1048134,0.98,-0.17,0.01,-3.4,5.3,-8.9,-14.6,57.2,14.9,101.118,36.52,0,1,0,0,1,NONE,66,233
2026-05-27T23:39:15.227,1048182,1.15,-0.14,-0.19,-10.1,24.5,-0.5,-15.1,57.6,15.2,101.123,36.52,0,1,0,0,1,NONE,50,170
2026-05-27T23:39:15.282,1048234,0.94,-0.27,-0.33,10.7,-0.1,6.6,-15.8,57.2,15.1,101.12,36.52,0,1,0,0,1,NONE,32,192
2026-05-27T23:39:15.325,1048286,0.96,-0.18,-0.24,32.0,9.6,-4.0,-15.5,56.2,15.5,101.12,36.52,0,1,0,1,2,NONE,39,209
2026-05-27T23:39:15.369,1048332,0.85,-0.3,-0.23,8.1,4.5,-2.3,-15.7,56.3,18.0,101.118,36.52,0,1,0,1,2,NONE,30,217
2026-05-27T23:39:15.421,1048384,0.92,-0.32,-0.16,15.8,0.5,-2.1,-16.2,56.7,16.7,101.121,36.52,0,1,0,0,1,NONE,44,210
2026-05-27T23:39:15.470,1048432,1.01,-0.28,-0.2,35.3,6.8,8.4,-16.5,56.1,17.9,101.123,36.52,0,1,0,0,1,NONE,81,162
2026-05-27T23:39:15.528,1048484,0.93,-0.22,-0.21,30.8,-5.0,-1.0,-16.3,55.4,19.0,101.12,36.52,0,1,0,0,1,NONE,45,180
2026-05-27T23:39:15.576,1048536,0.85,-0.23,-0.16,18.9,0.3,3.4,-16.1,54.9,19.2,101.12,36.52,0,1,0,0,1,NONE,34,188
2026-05-27T23:39:15.624,1048584,0.91,-0.23,-0.14,15.4,3.8,7.0,-15.8,53.7,19.7,101.119,36.52,0,1,0,0,1,NONE,43,158
2026-05-27T23:39:15.676,1048632,0.94,-0.15,-0.12,11.0,6.7,11.3,-16.2,54.0,19.7,101.12,36.52,0,1,0,0,1,NONE,34,197
2026-05-27T23:39:15.721,1048684,0.94,-0.12,-0.11,15.2,0.8,14.4,-15.2,52.5,19.8,101.121,36.52,0,1,0,0,1,NONE,37,160
2026-05-27T23:39:15.778,1048734,1.03,-0.14,-0.11,6.5,0.6,12.2,-14.9,52.8,19.7,101.121,36.52,0,1,0,0,1,NONE,33,160
2026-05-27T23:39:15.822,1048783,0.94,-0.15,-0.07,2.9,-14.5,7.6,-14.6,53.3,20.3,101.121,36.52,0,1,0,1,2,NONE,38,176
2026-05-27T23:39:15.872,1048834,0.94,-0.09,-0.08,1.0,-8.1,7.4,-14.5,52.5,20.0,101.119,36.52,0,1,0,1,2,NONE,48,248
2026-05-27T23:39:15.931,1048886,1.18,-0.31,-0.34,11.4,16.5,-4.6,-14.3,52.6,21.0,101.119,36.52,0,1,0,1,2,NONE,23,162
2026-05-27T23:39:15.976,1048932,0.98,-0.07,-0.15,-4.4,-7.9,5.3,-14.6,52.6,20.8,101.116,36.52,0,1,0,1,2,NONE,29,121
2026-05-27T23:39:16.028,1048984,0.86,-0.17,-0.22,25.0,0.2,5.6,-13.9,52.2,20.6,101.122,36.52,0,1,0,1,2,NONE,43,137
2026-05-27T23:39:16.079,1049032,0.88,-0.06,-0.21,19.0,1.7,1.4,-13.7,51.3,21.0,101.124,36.52,0,1,0,1,2,NONE,28,97
2026-05-27T23:39:16.124,1049085,0.93,-0.2,-0.2,7.9,4.5,0.8,-14.2,51.4,22.9,101.119,36.51,0,1,0,1,2,NONE,18,79
2026-05-27T23:39:16.180,1049136,1.05,-0.17,-0.23,1.5,4.3,0.2,-14.1,50.9,22.7,101.122,36.52,0,1,0,1,2,NONE,36,116
2026-05-27T23:39:16.221,1049184,0.93,-0.13,-0.18,11.5,-10.2,3.6,-14.3,50.9,23.1,101.123,36.51,0,1,0,1,2,NONE,30,65
2026-05-27T23:39:16.274,1049232,0.9,-0.13,-0.08,14.5,-4.2,1.7,-14.4,50.4,22.8,101.121,36.51,0,1,0,1,2,NONE,15,71
2026-05-27T23:39:16.329,1049284,0.93,-0.2,-0.12,1.3,0.5,-1.4,-13.7,50.6,22.5,101.124,36.52,0,1,0,1,2,NONE,17,83
2026-05-27T23:39:16.378,1049334,0.91,-0.17,-0.09,-10.0,4.8,-3.6,-14.3,50.5,22.1,101.122,36.52,0,1,0,1,2,NONE,67,248
2026-05-27T23:39:16.427,1049382,0.94,-0.12,-0.06,-2.1,4.2,-6.9,-14.2,51.0,22.2,101.119,36.51,0,1,0,0,1,NONE,44,178
2026-05-27T23:39:16.477,1049434,0.96,-0.19,-0.02,-2.4,5.9,-5.0,-14.6,50.8,21.4,101.122,36.52,0,1,0,0,1,NONE,34,196
2026-05-27T23:39:16.522,1049486,0.94,-0.22,-0.04,-17.4,4.3,-5.8,-15.4,50.8,22.3,101.12,36.51,0,1,0,0,1,NONE,39,181
2026-05-27T23:39:16.576,1049532,0.92,-0.2,0.02,-18.1,5.9,-3.6,-15.5,51.3,22.3,101.121,36.51,0,1,0,0,1,NONE,39,207
2026-05-27T23:39:16.623,1049584,1.17,-0.15,-0.2,2.3,35.9,5.4,-15.2,51.2,20.2,101.124,36.52,0,1,0,1,2,NONE,59,328
2026-05-27T23:39:16.671,1049632,0.87,-0.24,-0.25,10.5,16.2,3.2,-15.4,51.5,21.7,101.121,36.51,0,1,0,1,2,NONE,41,190
2026-05-27T23:39:16.719,1049684,0.9,-0.16,-0.25,-4.5,27.0,2.5,-16.1,51.1,22.5,101.121,36.51,0,1,0,0,1,NONE,47,257
2026-05-27T23:39:16.779,1049736,0.97,-0.25,-0.2,-2.6,15.8,4.9,-16.1,52.2,20.1,101.122,36.51,0,1,0,0,1,NONE,24,135
2026-05-27T23:39:16.829,1049784,1.07,-0.37,-0.24,16.1,19.0,5.2,-16.8,51.9,20.7,101.122,36.51,0,1,0,0,1,NONE,39,141
2026-05-27T23:39:16.876,1049832,0.89,-0.25,-0.21,1.1,7.6,3.3,-17.3,51.4,21.9,101.122,36.51,0,1,0,0,1,NONE,31,154
2026-05-27T23:39:16.930,1049884,0.94,-0.22,-0.26,-24.7,16.0,0.6,-17.6,51.3,21.1,101.119,36.51,0,1,0,0,1,NONE,30,145
2026-05-27T23:39:16.977,1049932,0.96,-0.18,-0.23,-19.5,5.1,2.0,-17.7,52.1,20.0,101.122,36.51,0,1,0,0,1,NONE,24,127
2026-05-27T23:39:17.021,1049984,0.89,-0.15,-0.22,-8.2,2.5,8.2,-17.3,52.8,19.8,101.125,36.51,0,1,0,0,1,NONE,25,118
2026-05-27T23:39:17.079,1050034,0.91,-0.11,-0.18,-16.2,-0.1,8.9,-16.8,53.1,20.1,101.122,36.51,0,1,0,0,1,NONE,37,181
2026-05-27T23:39:17.123,1050082,0.95,-0.17,-0.19,-17.3,3.9,9.9,-16.7,53.5,19.5,101.116,36.51,0,1,0,0,1,NONE,60,273
2026-05-27T23:39:17.179,1050134,0.94,-0.17,-0.14,-13.8,-3.1,8.6,-16.7,53.6,18.3,101.122,36.51,0,1,0,0,1,NONE,43,234
2026-05-27T23:39:17.231,1050186,1.0,-0.11,-0.14,9.6,-12.6,8.2,-16.2,54.1,17.2,101.121,36.5,0,1,0,0,1,NONE,43,175
2026-05-27T23:39:17.264,1050232,0.97,-0.24,-0.12,5.0,-14.9,7.0,-15.8,54.4,18.0,101.12,36.51,0,1,0,0,1,NONE,37,178
2026-05-27T23:39:17.328,1050286,0.86,-0.31,-0.06,-4.6,-5.2,6.5,-15.6,53.6,18.6,101.124,36.51,0,1,0,0,1,NONE,84,176
2026-05-27T23:39:17.376,1050332,0.92,-0.31,-0.11,-6.0,7.4,6.5,-15.1,53.7,17.9,101.119,36.5,0,1,0,0,1,NONE,42,253
2026-05-27T23:39:17.427,1050384,1.14,-0.29,-0.31,-30.5,24.5,-2.9,-15.0,54.4,17.2,101.123,36.51,0,1,0,0,1,NONE,66,355
2026-05-27T23:39:17.479,1050436,1.08,-0.04,-0.21,9.4,7.4,7.9,-15.7,54.3,17.1,101.122,36.51,0,1,0,0,1,NONE,74,382
2026-05-27T23:39:17.523,1050484,0.95,-0.22,-0.25,8.1,8.9,9.9,-15.6,54.7,16.5,101.12,36.5,0,1,0,0,1,NONE,37,237
2026-05-27T23:39:17.570,1050532,0.94,0.0,-0.34,14.3,9.5,14.2,-15.7,54.2,17.2,101.121,36.5,0,1,0,0,1,NONE,38,195
2026-05-27T23:39:17.618,1050584,0.87,0.04,-0.22,24.5,3.1,10.4,-15.1,54.4,16.7,101.122,36.5,0,1,0,0,1,NONE,83,340
2026-05-27T23:39:17.670,1050634,0.94,0.01,-0.21,25.6,5.1,3.0,-14.8,54.2,18.4,101.121,36.5,0,1,0,0,1,NONE,70,387
2026-05-27T23:39:17.729,1050682,0.98,-0.13,-0.24,11.7,2.0,4.1,-15.2,53.2,18.4,101.124,36.5,0,1,0,0,1,NONE,80,419
2026-05-27T23:39:17.777,1050734,0.93,-0.09,-0.21,-5.9,-0.2,4.7,-15.0,53.3,15.7,101.115,36.5,0,1,0,0,1,NONE,63,332
2026-05-27T23:39:17.828,1050783,0.88,-0.07,-0.23,-6.8,-1.2,3.5,-15.0,53.3,15.7,101.121,36.51,0,1,0,0,1,NONE,36,184
2026-05-27T23:39:17.874,1050832,0.96,-0.05,-0.21,-5.7,4.9,0.5,-15.0,53.6,17.6,101.122,36.5,0,1,0,0,1,NONE,78,289
2026-05-27T23:39:17.923,1050884,0.96,-0.03,-0.17,7.8,-2.5,-4.2,-14.7,54.1,18.7,101.12,36.5,0,1,0,0,1,NONE,58,273
2026-05-27T23:39:17.977,1050932,0.93,-0.05,-0.12,17.6,-4.4,-10.3,-15.4,53.7,18.6,101.121,36.5,0,1,0,0,1,NONE,39,178
2026-05-27T23:39:18.029,1050984,0.9,-0.14,-0.08,22.6,-6.7,-16.6,-15.1,54.1,18.7,101.12,36.5,0,1,0,0,1,NONE,30,135
2026-05-27T23:39:18.078,1051034,0.96,-0.14,-0.11,26.9,-7.0,-19.3,-15.8,53.0,19.6,101.12,36.49,0,1,0,0,1,NONE,33,165
2026-05-27T23:39:18.128,1051082,0.94,-0.22,-0.04,27.2,-17.6,-15.6,-15.5,52.7,19.6,101.121,36.5,0,1,0,0,1,NONE,35,182
2026-05-27T23:39:18.176,1051134,1.01,-0.27,0.05,4.2,-14.1,-11.4,-16.5,53.1,20.7,101.122,36.51,0,1,0,0,1,NONE,36,220
2026-05-27T23:39:18.228,1051186,0.92,-0.24,0.12,-1.0,-18.5,-0.1,-15.5,53.2,19.2,101.121,36.49,0,1,0,1,2,NONE,62,223
2026-05-27T23:39:18.276,1051232,1.14,-0.16,-0.16,-4.2,16.1,6.5,-15.5,53.6,19.2,101.119,36.5,0,1,0,1,2,NONE,92,238
2026-05-27T23:39:18.331,1051286,1.26,-0.11,-0.35,33.3,17.5,13.7,-15.8,53.5,19.8,101.12,36.5,0,1,0,1,2,NONE,39,267
2026-05-27T23:39:18.379,1051332,0.8,-0.18,-0.27,34.7,8.2,-2.0,-16.1,51.7,20.8,101.119,36.49,0,1,0,1,2,NONE,32,186
2026-05-27T23:39:18.414,1051384,0.83,-0.29,-0.22,-17.4,17.2,-9.0,-16.1,52.0,20.6,101.123,36.5,0,1,0,0,1,NONE,30,197
2026-05-27T23:39:18.477,1051436,0.98,-0.32,-0.19,-5.7,12.3,-2.7,-16.2,52.8,20.1,101.122,36.49,0,1,0,0,1,NONE,59,216
2026-05-27T23:39:18.524,1051484,0.96,-0.25,-0.27,-1.5,14.6,3.2,-16.5,53.4,22.0,101.125,36.49,0,1,0,0,1,NONE,26,127
2026-05-27T23:39:18.572,1051532,0.9,-0.16,-0.18,-24.5,10.0,-2.9,-17.9,53.6,19.9,101.12,36.5,0,1,0,0,1,NONE,30,173
2026-05-27T23:39:18.624,1051584,0.91,-0.19,-0.18,-16.1,15.9,-1.5,-17.0,54.3,20.2,101.124,36.49,0,1,0,0,1,NONE,59,294
2026-05-27T23:39:18.674,1051634,0.93,-0.18,-0.2,-16.5,14.6,1.0,-17.6,54.7,18.2,101.122,36.49,0,1,0,0,1,NONE,27,183
2026-05-27T23:39:18.714,1051682,0.92,-0.2,-0.21,-12.3,30.8,3.1,-17.6,55.0,17.4,101.122,36.5,0,1,0,0,1,NONE,33,130
2026-05-27T23:39:18.781,1051734,0.94,-0.17,-0.22,-3.8,10.3,5.7,-18.0,55.5,18.0,101.12,36.49,0,1,0,0,1,NONE,37,159
2026-05-27T23:39:18.830,1051786,0.96,-0.19,-0.09,2.5,-2.1,10.6,-17.6,55.5,17.2,101.122,36.49,0,1,0,0,1,NONE,30,188
2026-05-27T23:39:18.875,1051832,0.95,-0.22,-0.1,-0.6,-0.2,14.7,-16.9,55.2,18.6,101.123,36.49,0,1,0,0,1,NONE,41,217
2026-05-27T23:39:18.924,1051884,0.98,-0.15,-0.07,10.2,-4.0,13.1,-16.7,55.3,16.9,101.124,36.49,0,1,0,0,1,NONE,35,204
2026-05-27T23:39:18.980,1051932,0.96,-0.13,-0.04,11.7,-4.6,12.2,-16.7,55.0,18.3,101.121,36.49,0,1,0,0,1,NONE,70,243
2026-05-27T23:39:19.018,1051984,1.06,-0.29,-0.21,4.3,8.0,1.0,-15.8,55.2,18.4,101.121,36.5,0,1,0,0,1,NONE,62,210
2026-05-27T23:39:19.066,1052036,0.94,-0.17,-0.16,-9.9,0.9,0.9,-15.9,54.9,17.9,101.121,36.49,0,1,0,0,1,NONE,53,287
2026-05-27T23:39:19.120,1052084,1.01,-0.14,-0.21,11.2,0.2,-1.6,-15.9,55.3,18.3,101.121,36.49,0,1,0,0,1,NONE,75,430
2026-05-27T23:39:19.167,1052132,1.04,-0.24,-0.27,18.7,0.3,2.1,-16.3,55.4,18.2,101.121,36.49,0,1,0,0,1,NONE,53,295
2026-05-27T23:39:19.228,1052184,0.98,-0.14,-0.19,29.5,-6.3,7.5,-15.5,55.1,18.8,101.121,36.49,0,1,0,0,1,NONE,48,343
2026-05-27T23:39:19.276,1052232,0.86,-0.14,-0.2,21.6,3.9,4.6,-15.2,54.7,20.1,101.12,36.49,0,1,0,0,1,NONE,61,317
2026-05-27T23:39:19.327,1052284,0.94,-0.04,-0.24,34.5,-0.7,5.3,-15.5,54.1,20.4,101.121,36.49,0,1,0,0,1,NONE,40,268
2026-05-27T23:39:19.371,1052334,0.93,-0.1,-0.22,23.3,-4.3,-2.1,-15.3,53.8,21.3,101.123,36.49,0,1,0,0,1,NONE,44,227
2026-05-27T23:39:19.418,1052383,1.02,-0.17,-0.16,11.5,-1.9,-0.2,-15.3,54.1,21.5,101.12,36.49,0,1,0,0,1,NONE,38,197
2026-05-27T23:39:19.471,1052434,0.92,-0.15,-0.19,6.2,-7.2,4.3,-15.8,53.4,22.1,101.121,36.49,0,1,0,0,1,NONE,66,327
2026-05-27T23:39:19.531,1052486,0.87,-0.1,-0.1,16.2,-4.3,6.2,-15.6,53.5,21.8,101.117,36.49,0,1,0,0,1,NONE,43,258
2026-05-27T23:39:19.577,1052532,0.92,-0.1,-0.07,7.6,6.2,4.7,-14.9,52.4,23.0,101.121,36.49,0,1,0,0,1,NONE,44,289
2026-05-27T23:39:19.630,1052584,0.92,-0.11,-0.08,11.8,6.5,-0.4,-15.4,52.5,22.3,101.121,36.49,0,1,0,0,1,NONE,36,218
2026-05-27T23:39:19.676,1052632,0.92,-0.19,-0.03,5.1,3.7,-5.8,-15.2,52.2,22.3,101.121,36.49,0,1,0,0,1,NONE,45,262
2026-05-27T23:39:19.724,1052684,0.97,-0.2,-0.02,-2.8,-2.0,-9.2,-15.2,52.4,22.7,101.124,36.49,0,1,0,0,1,NONE,48,237
2026-05-27T23:39:19.776,1052736,0.95,-0.24,0.01,5.2,-4.5,-11.4,-15.6,52.9,21.9,101.119,36.49,0,1,0,0,1,NONE,39,211
2026-05-27T23:39:19.825,1052784,1.02,-0.3,-0.06,-11.2,3.3,-11.7,-16.1,52.8,23.1,101.124,36.49,0,1,0,0,1,NONE,93,281
2026-05-27T23:39:19.880,1052835,1.25,-0.16,-0.46,-2.0,15.0,7.4,-16.6,53.4,22.6,101.123,36.49,0,1,0,0,1,NONE,96,274
2026-05-27T23:39:19.927,1052882,0.92,-0.21,-0.22,8.9,2.1,-1.3,-16.3,52.8,23.4,101.119,36.49,0,1,0,0,1,NONE,63,279
2026-05-27T23:39:19.979,1052936,0.8,-0.24,-0.2,-46.7,14.8,-3.8,-15.9,53.3,22.8,101.117,36.48,0,1,0,0,1,NONE,55,275
2026-05-27T23:39:20.015,1052982,0.95,-0.21,-0.21,-39.2,14.8,0.1,-16.7,54.0,21.5,101.122,36.48,0,0,0,0,0,NONE,65,295
2026-05-27T23:39:20.075,1053032,1.04,-0.19,-0.19,-9.1,8.4,-0.4,-17.1,54.9,21.6,101.123,36.48,0,0,0,0,0,NONE,52,305
2026-05-27T23:39:20.123,1053082,0.9,-0.15,-0.18,-16.9,-2.4,-2.8,-16.9,55.7,21.2,101.122,36.48,0,1,0,0,1,NONE,105,616
2026-05-27T23:39:20.178,1053134,0.91,-0.2,-0.16,-8.7,2.1,-3.6,-16.9,56.2,20.3,101.122,36.49,0,1,0,0,1,NONE,82,410
2026-05-27T23:39:20.226,1053183,0.92,-0.25,-0.14,-5.6,6.2,-0.2,-17.6,55.5,19.1,101.12,36.48,0,1,0,0,1,NONE,60,387
2026-05-27T23:39:20.266,1053234,0.96,-0.2,-0.17,-3.5,8.1,2.1,-17.6,56.4,18.9,101.125,36.48,0,1,0,0,1,NONE,52,256
2026-05-27T23:39:20.315,1053284,0.91,-0.21,-0.11,0.8,8.0,6.5,-17.6,56.6,19.3,101.123,36.48,0,0,0,0,0,NONE,47,223
2026-05-27T23:39:20.366,1053332,0.91,-0.23,-0.09,-1.2,8.3,8.4,-17.6,56.6,18.8,101.123,36.48,0,0,0,0,0,NONE,28,183
2026-05-27T23:39:20.426,1053384,0.99,-0.16,-0.05,10.2,0.0,9.2,-17.9,56.6,18.6,101.119,36.48,0,0,0,0,0,NONE,38,209
2026-05-27T23:39:20.478,1053432,0.94,-0.17,0.0,6.7,-4.3,9.8,-17.3,55.9,20.1,101.119,36.49,0,0,0,0,0,NONE,33,161
2026-05-27T23:39:20.530,1053484,0.99,-0.19,-0.03,19.9,2.5,8.0,-17.0,56.0,19.2,101.124,36.48,0,0,0,0,0,NONE,35,157
2026-05-27T23:39:20.569,1053532,1.01,-0.32,-0.26,-3.8,21.0,-3.7,-16.7,56.0,19.3,101.12,36.49,0,0,0,0,0,NONE,60,310
2026-05-27T23:39:20.617,1053584,1.03,-0.17,-0.21,11.5,4.5,1.9,-17.5,56.2,18.8,101.12,36.48,0,1,0,0,1,NONE,57,289
2026-05-27T23:39:20.666,1053634,0.98,-0.28,-0.14,21.4,-4.7,9.5,-17.4,55.7,20.3,101.121,36.48,0,1,0,0,1,NONE,39,222
2026-05-27T23:39:20.716,1053683,0.98,-0.18,-0.25,33.9,-8.2,12.5,-17.2,55.3,20.0,101.12,36.48,0,1,0,0,1,NONE,47,235
2026-05-27T23:39:20.779,1053734,0.87,-0.12,-0.22,35.5,-11.4,9.6,-16.4,54.8,19.8,101.122,36.48,0,1,0,0,1,NONE,77,472
2026-05-27T23:39:20.835,1053786,0.9,-0.17,-0.22,32.0,-3.7,4.3,-16.3,53.9,23.0,101.12,36.48,0,1,0,0,1,NONE,52,320
2026-05-27T23:39:20.875,1053832,0.95,-0.11,-0.17,22.3,-5.0,1.6,-15.8,53.4,21.5,101.118,36.48,0,1,0,0,1,NONE,55,362
2026-05-27T23:39:20.926,1053886,1.0,-0.16,-0.14,8.4,0.9,2.9,-15.8,53.0,21.6,101.12,36.48,0,1,0,0,1,NONE,45,231
2026-05-27T23:39:20.971,1053932,0.95,-0.11,-0.15,14.2,-1.1,8.3,-15.4,52.6,23.5,101.121,36.48,0,1,0,0,1,NONE,41,230
2026-05-27T23:39:21.020,1053984,0.91,-0.12,-0.08,14.5,7.0,11.2,-15.3,52.0,23.2,101.118,36.48,0,1,0,0,1,NONE,46,275
2026-05-27T23:39:21.071,1054036,0.91,-0.09,-0.09,16.3,11.3,7.9,-15.1,52.0,22.7,101.122,36.48,0,1,0,0,1,NONE,46,303
2026-05-27T23:39:21.127,1054084,0.91,-0.13,-0.05,12.0,17.6,3.2,-15.1,51.8,23.1,101.119,36.48,0,1,0,0,1,NONE,51,303
2026-05-27T23:39:21.174,1054132,0.96,-0.16,-0.08,6.1,19.8,-2.8,-15.5,51.4,23.4,101.121,36.48,0,1,0,0,1,NONE,47,304
2026-05-27T23:39:21.226,1054184,0.94,-0.17,-0.06,7.0,7.1,-3.7,-16.2,51.0,23.4,101.124,36.48,0,1,0,0,1,NONE,30,182
2026-05-27T23:39:21.278,1054234,0.97,-0.24,-0.06,-8.7,-3.4,-4.6,-16.6,50.8,24.3,101.121,36.48,0,1,0,0,1,NONE,36,192
2026-05-27T23:39:21.323,1054283,1.12,-0.25,-0.17,-36.9,4.5,-4.1,-16.3,50.6,22.9,101.123,36.48,0,0,0,0,0,NONE,112,244
2026-05-27T23:39:21.371,1054334,1.18,0.05,-0.47,-8.2,10.1,12.0,-16.6,51.7,22.4,101.119,36.47,0,0,0,0,0,NONE,23,125
2026-05-27T23:39:21.428,1054383,0.9,-0.05,-0.2,-11.2,1.0,-2.2,-16.6,51.7,22.4,101.12,36.48,0,1,0,0,1,NONE,31,188
2026-05-27T23:39:21.470,1054434,0.99,-0.05,-0.26,-47.9,-5.4,-7.8,-17.2,54.1,21.2,101.121,36.47,0,1,0,0,1,NONE,36,251
2026-05-27T23:39:21.530,1054486,0.98,-0.12,-0.15,-20.0,-15.0,-8.1,-16.8,53.8,19.7,101.121,36.47,0,0,0,0,0,NONE,31,178
2026-05-27T23:39:21.578,1054534,0.94,-0.1,-0.13,10.5,-4.6,-6.2,-16.7,53.9,20.6,101.12,36.47,0,0,0,0,0,NONE,24,163
2026-05-27T23:39:21.626,1054582,0.91,-0.11,-0.1,30.2,-2.2,-11.0,-17.6,53.2,20.9,101.124,36.48,0,1,0,0,1,NONE,25,139
2026-05-27T23:39:21.678,1054634,0.95,-0.26,-0.13,35.3,0.4,-12.3,-17.7,53.0,21.2,101.121,36.47,0,1,0,0,1,NONE,24,134
2026-05-27T23:39:21.726,1054686,0.92,-0.29,-0.12,35.6,-3.3,-9.3,-17.8,52.5,21.6,101.125,36.47,0,0,0,0,0,NONE,26,126
2026-05-27T23:39:21.775,1054732,0.92,-0.31,-0.13,29.1,-2.4,-8.2,-17.5,51.6,21.6,101.124,36.47,0,0,0,0,0,NONE,29,152
2026-05-27T23:39:21.817,1054784,0.88,-0.34,-0.1,10.8,10.1,-3.7,-17.8,51.4,22.6,101.124,36.47,0,0,0,0,0,NONE,23,134
2026-05-27T23:39:21.865,1054832,0.94,-0.31,-0.08,5.0,7.7,1.8,-18.3,50.8,23.1,101.125,36.47,0,0,0,0,0,NONE,22,131
2026-05-27T23:39:21.930,1054884,0.96,-0.27,-0.08,-2.3,0.6,5.7,-18.7,51.5,22.4,101.121,36.47,0,0,0,0,0,NONE,21,108
2026-05-27T23:39:21.980,1054936,0.94,-0.22,-0.04,9.0,-8.7,9.7,-18.0,51.2,22.8,101.122,36.48,0,0,0,0,0,NONE,25,131
2026-05-27T23:39:22.027,1054984,0.94,-0.25,0.02,8.9,-13.1,8.7,-17.5,51.5,23.8,101.122,36.47,0,0,0,0,0,NONE,57,327
2026-05-27T23:39:22.079,1055032,0.96,-0.28,-0.05,24.5,-0.2,8.1,-17.2,51.2,23.9,101.122,36.47,0,0,0,0,0,NONE,97,423
2026-05-27T23:39:22.125,1055084,0.94,-0.37,-0.21,-5.1,0.5,-0.5,-17.3,50.7,22.8,101.123,36.47,0,1,0,0,1,NONE,99,482
2026-05-27T23:39:22.169,1055134,1.0,-0.2,-0.16,19.8,6.7,10.9,-16.9,50.6,23.0,101.121,36.48,0,1,0,0,1,NONE,66,349
2026-05-27T23:39:22.223,1055183,0.95,-0.27,-0.2,10.5,-0.9,15.4,-16.8,49.8,24.3,101.119,36.47,0,1,0,0,1,NONE,32,263
2026-05-27T23:39:22.266,1055234,0.86,0.03,-0.21,3.2,1.8,12.5,-16.7,50.0,23.5,101.121,36.47,0,1,0,0,1,NONE,23,135
2026-05-27T23:39:22.330,1055286,0.92,-0.17,-0.11,8.5,-4.9,7.8,-16.5,49.8,23.2,101.122,36.47,0,0,0,0,0,NONE,40,184
2026-05-27T23:39:22.374,1055332,0.97,-0.19,-0.08,-15.1,3.9,0.9,-16.1,50.0,23.3,101.121,36.48,0,0,0,0,0,NONE,80,376
2026-05-27T23:39:22.423,1055384,1.03,-0.12,-0.11,-7.8,1.7,5.8,-16.8,51.1,22.3,101.123,36.47,0,0,0,0,0,NONE,41,230
2026-05-27T23:39:22.474,1055432,0.93,-0.11,-0.06,9.0,7.2,13.6,-16.4,50.9,23.7,101.12,36.47,0,0,0,0,0,NONE,152,690
2026-05-27T23:39:22.523,1055484,0.91,-0.15,-0.03,10.2,15.9,11.0,-16.6,50.6,24.0,101.121,36.47,0,0,0,0,0,NONE,239,1030
2026-05-27T23:39:22.571,1055536,0.94,-0.12,-0.03,3.2,29.4,5.7,-17.1,50.2,22.9,101.118,36.47,0,0,0,0,0,NONE,154,805
2026-05-27T23:39:22.630,1055584,1.02,-0.21,-0.09,-11.0,19.2,-1.3,-17.6,51.0,23.6,101.122,36.46,0,0,0,0,0,NONE,225,1061
2026-05-27T23:39:22.675,1055632,0.97,-0.12,-0.14,-12.1,19.0,-5.4,-18.0,51.1,22.0,101.122,36.47,0,0,0,0,0,NONE,88,368
2026-05-27T23:39:22.727,1055684,1.06,-0.25,-0.22,-25.3,29.9,-7.8,-18.8,51.2,22.3,101.119,36.46,0,0,0,0,0,NONE,37,156
2026-05-27T23:39:22.778,1055734,0.79,-0.13,-0.27,-1.0,6.6,1.8,-19.3,51.5,21.8,101.122,36.47,0,0,0,0,0,NONE,25,115
2026-05-27T23:39:22.827,1055782,0.91,-0.15,-0.26,-20.5,25.6,10.4,-19.3,51.5,22.3,101.119,36.47,0,0,0,0,0,NONE,29,155
2026-05-27T23:39:22.872,1055834,1.02,-0.12,-0.25,-27.4,23.9,12.6,-19.9,52.8,20.4,101.117,36.47,0,0,0,0,0,NONE,41,155
2026-05-27T23:39:22.932,1055886,0.94,-0.0,-0.38,-21.4,30.7,6.8,-19.6,53.1,21.4,101.117,36.47,0,0,0,0,0,NONE,36,176
2026-05-27T23:39:22.970,1055932,0.96,-0.21,-0.27,-35.2,25.4,2.7,-20.5,53.8,18.4,101.118,36.46,0,0,0,0,0,NONE,49,125
2026-05-27T23:39:23.015,1055984,0.97,-0.1,-0.34,-17.1,25.3,3.1,-20.8,54.8,18.8,101.123,36.47,0,0,0,0,0,NONE,41,138
2026-05-27T23:39:23.066,1056032,0.89,-0.2,-0.1,-5.1,-10.5,-2.1,-20.4,55.2,17.6,101.122,36.46,0,0,0,0,0,NONE,29,146
2026-05-27T23:39:23.129,1056084,0.86,-0.3,-0.21,16.7,16.8,7.4,-21.3,54.8,17.8,101.123,36.47,0,0,0,0,0,NONE,19,104
2026-05-27T23:39:23.176,1056134,0.87,-0.27,-0.33,17.3,25.9,13.5,-20.9,55.0,18.0,101.122,36.47,0,0,0,0,0,NONE,28,149
2026-05-27T23:39:23.228,1056183,0.83,-0.2,-0.42,27.7,13.9,6.6,-20.9,54.3,18.8,101.121,36.46,0,0,0,0,0,NONE,37,178
2026-05-27T23:39:23.280,1056234,0.7,-0.21,-0.15,15.8,16.7,-1.5,-21.1,54.5,18.4,101.122,36.47,0,0,0,0,0,NONE,24,137
2026-05-27T23:39:23.319,1056286,1.0,-0.1,-0.39,17.8,36.2,0.4,-21.6,53.7,19.5,101.123,36.47,0,0,0,0,0,NONE,29,152
2026-05-27T23:39:23.371,1056332,0.79,-0.02,-0.22,24.0,15.5,-5.3,-22.4,53.0,18.5,101.122,36.46,0,0,0,0,0,NONE,72,127
2026-05-27T23:39:23.431,1056386,0.82,-0.09,-0.31,12.6,20.8,-2.7,-22.9,53.1,18.6,101.125,36.46,0,0,0,0,0,NONE,48,164
2026-05-27T23:39:23.463,1056432,0.8,-0.22,-0.22,-15.4,14.2,-5.9,-22.8,53.3,19.4,101.125,36.46,0,0,0,0,0,NONE,38,213
2026-05-27T23:39:23.528,1056484,1.23,-0.06,-0.53,22.8,4.5,0.2,-24.0,52.9,19.8,101.123,36.46,0,0,0,0,0,NONE,32,192
2026-05-27T23:39:23.576,1056536,1.02,-0.37,-0.17,-17.2,0.1,2.1,-24.0,52.5,19.6,101.126,36.46,0,0,0,0,0,NONE,23,105
2026-05-27T23:39:23.628,1056584,1.01,-0.0,-0.17,25.7,-3.9,8.7,-23.8,53.0,20.1,101.124,36.46,0,0,0,0,0,NONE,51,105
2026-05-27T23:39:23.675,1056632,0.8,-0.22,-0.38,37.6,-18.7,8.1,-23.4,52.5,20.1,101.124,36.46,0,0,0,0,0,NONE,65,90
2026-05-27T23:39:23.727,1056684,1.15,-0.08,-0.36,25.9,1.2,4.3,-22.5,51.5,21.8,101.126,36.45,0,0,0,0,0,NONE,44,207
2026-05-27T23:39:23.771,1056734,0.31,0.0,-0.02,57.5,-48.3,12.7,-21.9,50.7,21.6,101.121,36.46,0,0,0,0,0,NONE,24,142
2026-05-27T23:39:23.819,1056782,0.68,0.02,-0.45,3.5,7.3,12.0,-21.2,49.8,21.9,101.124,36.46,0,0,0,0,0,NONE,56,262
2026-05-27T23:39:23.879,1056834,0.7,-0.24,-0.61,-18.9,50.2,13.9,-20.9,50.1,21.7,101.123,36.46,0,0,0,0,0,NONE,26,135
2026-05-27T23:39:23.930,1056886,1.69,0.05,-0.64,-2.1,15.2,5.1,-22.0,50.7,22.2,101.125,36.45,0,0,0,0,0,NONE,42,126
2026-05-27T23:39:23.971,1056932,1.11,-0.2,-0.65,-48.2,28.4,6.8,-22.5,50.2,21.8,101.123,36.46,0,0,0,0,0,NONE,25,98
2026-05-27T23:39:24.024,1056984,1.19,-0.17,-0.8,-6.8,53.5,16.1,-22.5,50.9,19.8,101.127,36.46,0,0,0,0,0,NONE,32,118
2026-05-27T23:39:24.070,1057032,1.12,-0.1,-0.69,-7.0,71.7,21.1,-22.8,51.3,19.5,101.126,36.46,0,0,0,0,0,NONE,65,124
2026-05-27T23:39:24.116,1057084,1.04,0.07,-0.7,0.2,44.0,22.5,-23.5,51.3,18.3,101.125,36.46,0,0,0,0,0,NONE,157,686
2026-05-27T23:39:24.179,1057136,0.9,-0.04,-0.45,-1.0,34.9,13.6,-24.1,51.6,18.1,101.125,36.46,0,0,0,0,0,NONE,221,1232
2026-05-27T23:39:24.227,1057184,0.85,0.05,-0.52,-4.6,15.7,7.6,-24.3,52.1,17.1,101.127,36.46,0,0,0,0,0,NONE,110,572
2026-05-27T23:39:24.277,1057232,0.82,0.02,-0.51,-1.2,-0.5,2.1,-24.7,52.6,16.7,101.123,36.45,0,0,0,0,0,NONE,115,504
2026-05-27T23:39:24.328,1057284,0.86,0.03,-0.57,-4.2,-10.9,1.2,-24.9,52.1,17.8,101.122,36.46,0,0,0,0,0,NONE,124,558
2026-05-27T23:39:24.376,1057334,0.83,-0.11,-0.54,-3.6,-15.3,2.3,-25.0,52.6,18.2,101.128,36.46,0,0,0,0,0,NONE,149,739
2026-05-27T23:39:24.422,1057382,0.87,-0.02,-0.58,-11.8,-9.0,1.3,-24.4,52.9,19.2,101.125,36.46,0,0,0,0,0,NONE,64,305
2026-05-27T23:39:24.478,1057434,0.87,-0.1,-0.47,-6.8,-18.4,0.4,-23.8,53.4,17.4,101.123,36.46,0,0,0,0,0,NONE,34,203
2026-05-27T23:39:24.526,1057486,0.81,-0.1,-0.43,-2.9,-28.9,-0.8,-24.0,53.6,17.1,101.127,36.46,0,0,0,0,0,NONE,20,92
2026-05-27T23:39:24.571,1057532,0.84,0.01,-0.43,-8.2,-22.6,-1.5,-23.9,54.0,16.6,101.125,36.46,0,0,0,0,0,NONE,31,135
2026-05-27T23:39:24.628,1057584,0.81,-0.07,-0.4,2.9,-23.2,-2.2,-23.3,54.1,17.2,101.122,36.45,0,0,0,0,0,NONE,30,109
2026-05-27T23:39:24.676,1057632,0.95,-0.09,-0.45,-1.6,-23.7,-3.9,-23.2,53.9,16.1,101.125,36.46,0,0,0,0,0,NONE,26,115
2026-05-27T23:39:24.727,1057684,0.9,-0.06,-0.37,-5.9,-29.0,-2.5,-22.9,54.2,16.1,101.121,36.45,0,0,0,0,0,NONE,25,131
2026-05-27T23:39:24.778,1057734,0.97,-0.14,-0.4,-33.3,-17.3,-7.2,-22.1,54.3,16.5,101.122,36.45,0,0,0,0,0,NONE,21,103
2026-05-27T23:39:24.826,1057782,0.75,-0.06,-0.29,-18.9,-17.9,-4.1,-23.0,55.0,15.1,101.127,36.45,0,0,0,0,0,NONE,84,355
2026-05-27T23:39:24.871,1057834,0.8,-0.01,-0.58,5.4,11.5,-0.4,-22.6,55.7,14.6,101.123,36.45,0,0,0,0,0,NONE,33,137
2026-05-27T23:39:24.931,1057886,1.05,0.02,-0.57,57.3,9.5,-3.0,-22.5,55.2,14.3,101.125,36.46,0,0,0,0,0,NONE,38,105
2026-05-27T23:39:24.963,1057932,0.79,-0.35,-0.27,25.8,-22.4,-3.8,-22.3,54.2,16.8,101.123,36.45,0,0,0,0,0,NONE,33,146
2026-05-27T23:39:25.026,1057983,1.02,0.01,-0.36,6.8,3.4,-2.8,-22.3,54.2,16.8,101.125,36.45,0,0,0,0,0,NONE,20,133
2026-05-27T23:39:25.074,1058032,0.95,-0.26,-0.27,19.9,-15.1,-11.6,-22.9,53.0,17.7,101.124,36.45,0,0,0,0,0,NONE,21,135
2026-05-27T23:39:25.124,1058084,0.92,-0.23,-0.26,6.1,-6.0,-18.3,-22.6,52.7,18.6,101.12,36.45,0,0,0,0,0,NONE,31,120
2026-05-27T23:39:25.180,1058136,0.92,-0.2,-0.28,17.8,-10.7,-14.7,-22.9,53.0,18.0,101.122,36.45,0,0,0,0,0,NONE,61,126
2026-05-27T23:39:25.218,1058184,0.9,-0.2,-0.28,10.1,-7.4,-18.9,-23.2,53.7,17.8,101.126,36.45,0,0,0,0,0,NONE,25,119
2026-05-27T23:39:25.270,1058232,0.87,-0.24,-0.29,22.3,-6.8,-14.7,-23.7,53.0,18.7,101.125,36.45,0,0,0,0,0,NONE,21,105
2026-05-27T23:39:25.317,1058284,0.88,-0.29,-0.28,47.5,-17.9,0.1,-24.0,52.4,18.9,101.124,36.45,0,0,0,0,0,NONE,40,174
2026-05-27T23:39:25.365,1058332,1.01,-0.34,-0.4,23.9,4.2,0.3,-23.4,51.8,20.8,101.125,36.45,0,0,0,0,0,NONE,34,167
2026-05-27T23:39:25.428,1058384,0.83,-0.23,-0.31,-29.4,-24.8,0.3,-23.4,51.8,19.8,101.126,36.45,0,0,0,0,0,NONE,45,177
2026-05-27T23:39:25.478,1058434,0.99,-0.1,-0.23,3.2,-0.8,-0.4,-23.4,52.5,19.8,101.124,36.45,0,0,0,0,0,NONE,47,211
2026-05-27T23:39:25.525,1058482,0.94,-0.09,-0.32,27.5,-17.5,-1.6,-23.0,51.6,19.6,101.123,36.45,0,0,0,0,0,NONE,31,147
2026-05-27T23:39:25.574,1058534,0.83,-0.14,-0.14,42.6,-7.9,-4.1,-22.4,51.4,20.1,101.124,36.45,0,0,0,0,0,NONE,21,65
2026-05-27T23:39:25.621,1058586,1.0,-0.14,-0.25,74.9,-1.2,-4.5,-22.0,49.8,21.6,101.123,36.45,0,0,0,0,0,NONE,21,103
2026-05-27T23:39:25.670,1058632,0.98,-0.08,-0.26,95.0,-2.9,-4.0,-23.2,48.0,24.1,101.121,36.45,0,0,0,0,0,NONE,18,70
2026-05-27T23:39:25.729,1058684,0.87,-0.19,-0.15,91.4,-1.9,-5.2,-22.7,45.7,24.9,101.128,36.45,0,0,0,0,0,NONE,25,99
2026-05-27T23:39:25.777,1058732,0.97,-0.16,-0.18,84.4,9.8,-7.8,-22.8,43.3,26.4,101.123,36.45,0,0,0,0,0,NONE,22,122
2026-05-27T23:39:25.825,1058784,0.98,-0.16,-0.21,57.6,9.8,-14.2,-23.2,41.5,26.5,101.128,36.45,0,0,0,0,0,NONE,26,107
2026-05-27T23:39:25.877,1058834,0.91,-0.1,-0.24,47.1,-1.2,-16.8,-23.6,40.4,28.4,101.125,36.45,0,0,0,0,0,NONE,19,104
2026-05-27T23:39:25.925,1058882,0.88,-0.07,-0.23,28.1,18.2,-17.8,-23.5,39.3,28.4,101.122,36.45,0,0,0,0,0,NONE,20,92
2026-05-27T23:39:25.973,1058934,0.86,-0.12,-0.32,28.6,23.1,-19.3,-24.4,38.2,28.1,101.121,36.45,0,0,0,0,0,NONE,37,81
2026-05-27T23:39:26.029,1058986,0.86,-0.03,-0.5,24.8,47.5,-18.7,-25.1,37.5,28.6,101.123,36.45,0,0,0,0,0,NONE,30,116
2026-05-27T23:39:26.077,1059032,0.92,-0.25,-0.23,67.2,4.8,-3.8,-26.0,36.4,28.5,101.125,36.45,0,0,0,0,0,NONE,20,99
2026-05-27T23:39:26.129,1059084,0.89,-0.22,-0.43,16.8,38.0,-10.5,-26.5,34.7,28.4,101.126,36.45,0,0,0,0,0,NONE,43,62
2026-05-27T23:39:26.177,1059132,1.03,-0.22,-0.55,27.5,17.8,-6.8,-27.6,34.4,28.0,101.129,36.45,0,0,0,0,0,NONE,31,128
2026-05-27T23:39:26.229,1059184,1.02,-0.21,-0.42,63.8,-0.1,-9.1,-27.1,32.6,28.5,101.125,36.45,0,0,0,0,0,NONE,14,74
2026-05-27T23:39:26.274,1059235,0.95,-0.32,-0.42,32.2,6.9,-9.0,-27.2,31.6,29.8,101.127,36.45,0,0,0,0,0,NONE,18,102
2026-05-27T23:39:26.328,1059284,0.93,-0.27,-0.37,37.3,-5.2,-5.3,-27.1,29.9,29.0,101.123,36.45,0,0,0,0,0,NONE,21,113
2026-05-27T23:39:26.381,1059332,0.84,-0.18,-0.48,32.2,-1.9,-0.4,-26.9,29.8,28.9,101.124,36.44,0,0,0,0,0,NONE,18,96
2026-05-27T23:39:26.427,1059384,0.73,-0.24,-0.37,23.0,-3.8,-2.9,-27.1,29.2,28.8,101.124,36.45,0,0,0,0,0,NONE,41,155
2026-05-27T23:39:26.465,1059434,0.79,-0.17,-0.33,20.6,-1.9,0.7,-27.2,28.6,29.1,101.121,36.45,0,0,0,0,0,NONE,24,145
2026-05-27T23:39:26.521,1059482,0.71,-0.21,-0.36,9.9,-7.3,5.2,-26.9,28.5,28.8,101.123,36.45,0,0,0,0,0,NONE,52,166
2026-05-27T23:39:26.578,1059534,0.78,-0.14,-0.42,-1.8,-1.6,4.0,-26.3,28.4,28.8,101.12,36.45,0,0,0,0,0,NONE,25,143
2026-05-27T23:39:26.625,1059586,0.65,-0.1,-0.15,7.3,-16.1,12.0,-26.3,28.4,30.1,101.125,36.45,0,0,0,0,0,NONE,33,160
2026-05-27T23:39:26.680,1059632,0.79,-0.12,-0.39,6.7,-1.3,17.5,-25.9,28.7,29.4,101.127,36.45,0,0,0,0,0,NONE,21,99
2026-05-27T23:39:26.730,1059684,0.87,-0.27,-0.43,-2.1,5.9,21.5,-25.0,28.8,29.3,101.123,36.44,0,0,0,0,0,NONE,36,182
2026-05-27T23:39:26.772,1059732,1.18,-0.13,-0.92,-28.2,61.4,11.1,-25.9,29.3,30.3,101.126,36.45,0,0,0,0,0,NONE,51,196
2026-05-27T23:39:26.822,1059784,1.13,0.22,-0.57,-50.0,21.9,13.1,-27.8,30.8,28.3,101.127,36.45,0,0,0,0,0,NONE,24,138
2026-05-27T23:39:26.865,1059835,0.91,-0.34,-0.45,32.8,44.4,10.4,-27.8,32.0,28.4,101.126,36.44,0,0,0,0,0,NONE,31,167
2026-05-27T23:39:26.931,1059884,0.98,0.09,-0.66,-22.5,22.5,21.2,-29.8,32.0,28.1,101.127,36.44,0,0,0,0,0,NONE,35,150
2026-05-27T23:39:26.979,1059932,0.89,-0.17,-0.44,5.6,17.7,10.6,-30.0,33.2,28.6,101.125,36.44,0,0,0,0,0,NONE,21,149
2026-05-27T23:39:27.027,1059984,0.91,0.0,-0.55,-1.5,3.5,2.9,-30.4,33.4,27.9,101.126,36.44,0,0,0,0,0,NONE,20,91
2026-05-27T23:39:27.072,1060034,0.88,-0.09,-0.5,1.6,-3.1,-3.9,-30.0,32.8,28.2,101.125,36.44,0,0,0,0,0,NONE,23,72
2026-05-27T23:39:27.123,1060082,0.9,-0.08,-0.48,10.2,-15.8,-3.1,-30.0,33.4,28.3,101.127,36.45,0,0,0,0,0,NONE,15,84
2026-05-27T23:39:27.173,1060134,0.8,-0.05,-0.42,4.5,-16.1,-5.9,-29.4,32.6,27.4,101.125,36.45,0,0,0,0,0,NONE,18,110
2026-05-27T23:39:27.223,1060186,0.89,-0.06,-0.48,-3.4,-15.1,-11.2,-28.9,32.8,29.2,101.126,36.44,0,0,0,0,0,NONE,18,111
2026-05-27T23:39:27.275,1060232,0.87,-0.05,-0.38,4.6,-17.3,-17.2,-27.8,32.3,27.9,101.125,36.44,0,0,0,0,0,NONE,17,106
2026-05-27T23:39:27.330,1060286,0.84,-0.09,-0.48,0.9,-5.4,-22.7,-27.8,32.5,28.1,101.124,36.44,0,0,0,0,0,NONE,16,94
2026-05-27T23:39:27.366,1060332,0.81,-0.06,-0.36,12.4,0.4,-24.4,-27.9,32.0,29.5,101.124,36.44,0,0,0,0,0,NONE,16,95
2026-05-27T23:39:27.429,1060384,0.93,-0.29,-0.38,-20.5,4.7,-27.2,-27.7,32.6,29.1,101.123,36.45,0,0,0,0,0,NONE,12,58
2026-05-27T23:39:27.478,1060435,0.95,-0.21,-0.53,-26.4,14.5,-31.6,-27.8,32.7,29.4,101.127,36.44,0,0,0,0,0,NONE,58,84
2026-05-27T23:39:27.524,1060484,0.92,-0.24,-0.41,27.2,-25.1,-23.1,-28.6,33.5,29.5,101.127,36.45,0,0,0,0,0,NONE,45,104
2026-05-27T23:39:27.581,1060532,0.74,-0.14,-0.43,54.4,17.2,-7.4,-27.8,31.8,30.0,101.122,36.44,0,0,0,0,0,NONE,18,121
2026-05-27T23:39:27.625,1060584,0.96,-0.44,-0.57,17.3,-7.4,-12.4,-27.7,30.6,29.4,101.125,36.44,0,0,0,0,0,NONE,40,128
2026-05-27T23:39:27.665,1060634,0.77,-0.33,-0.44,31.1,-23.7,-4.6,-28.0,29.5,29.7,101.121,36.44,0,0,0,0,0,NONE,57,117
2026-05-27T23:39:27.725,1060682,0.95,-0.35,-0.56,17.5,-12.2,-6.5,-27.0,28.6,30.7,101.126,36.44,0,1,0,0,1,NONE,55,93
2026-05-27T23:39:27.778,1060734,0.8,-0.27,-0.36,22.9,-23.5,-4.6,-26.1,29.0,30.3,101.127,36.44,0,1,0,0,1,NONE,25,133
2026-05-27T23:39:27.829,1060786,0.88,-0.32,-0.46,25.3,-14.5,-3.6,-25.1,27.8,32.1,101.129,36.44,0,0,0,0,0,NONE,15,68
2026-05-27T23:39:27.876,1060832,0.86,-0.3,-0.41,32.3,-11.6,1.3,-24.9,27.0,30.5,101.126,36.44,0,0,0,0,0,NONE,16,77
2026-05-27T23:39:27.926,1060884,0.87,-0.3,-0.38,28.3,-11.5,1.2,-23.6,25.6,31.3,101.126,36.44,0,1,0,0,1,NONE,13,74
2026-05-27T23:39:27.971,1060932,0.9,-0.34,-0.34,16.6,-4.0,0.7,-23.3,24.9,31.0,101.125,36.44,0,1,0,0,1,NONE,18,71
2026-05-27T23:39:28.026,1060984,0.86,-0.26,-0.32,12.6,-0.4,3.8,-22.8,24.3,30.9,101.124,36.44,0,1,0,0,1,NONE,18,112
2026-05-27T23:39:28.081,1061035,0.86,-0.25,-0.37,7.3,2.7,3.7,-22.7,24.2,30.7,101.126,36.43,0,1,0,0,1,NONE,30,99
2026-05-27T23:39:28.126,1061084,0.88,-0.25,-0.33,8.1,-0.5,7.3,-22.4,23.2,31.7,101.121,36.43,0,1,0,0,1,NONE,15,102
2026-05-27T23:39:28.176,1061132,0.86,-0.2,-0.33,16.8,2.6,10.0,-22.8,23.5,31.0,101.123,36.44,0,1,0,0,1,NONE,28,112
2026-05-27T23:39:28.227,1061184,0.92,-0.21,-0.29,7.6,6.6,14.8,-22.8,23.7,31.0,101.124,36.44,0,1,0,0,1,NONE,15,98
2026-05-27T23:39:28.277,1061234,0.9,-0.14,-0.33,20.3,6.2,17.1,-22.3,22.9,31.7,101.124,36.45,0,1,0,0,1,NONE,22,148
2026-05-27T23:39:28.327,1061283,0.89,-0.14,-0.32,15.1,6.3,18.5,-22.8,22.8,32.1,101.129,36.44,0,1,0,0,1,NONE,29,128
2026-05-27T23:39:28.376,1061334,0.89,-0.03,-0.32,30.9,3.7,20.8,-23.0,22.7,33.1,101.127,36.44,0,1,0,0,1,NONE,30,89
2026-05-27T23:39:28.427,1061386,0.8,-0.44,-0.58,6.5,34.0,2.7,-23.1,21.6,32.0,101.127,36.44,0,1,0,0,1,NONE,56,107
2026-05-27T23:39:28.478,1061432,1.12,-0.02,-0.62,-33.6,26.4,-2.9,-23.6,21.7,32.1,101.122,36.44,0,1,0,0,1,NONE,17,93
2026-05-27T23:39:28.529,1061484,0.83,-0.27,-0.44,26.4,-3.8,11.1,-24.8,23.1,32.4,101.127,36.44,0,1,0,0,1,NONE,25,116
2026-05-27T23:39:28.576,1061533,0.95,-0.07,-0.44,22.4,1.0,12.9,-24.8,23.1,32.4,101.126,36.44,0,1,0,0,1,NONE,42,119
2026-05-27T23:39:28.628,1061584,0.9,-0.08,-0.44,-9.2,-1.2,6.3,-25.0,22.0,32.7,101.123,36.44,0,1,0,0,1,NONE,34,84
2026-05-27T23:39:28.676,1061635,0.88,-0.08,-0.39,-1.6,-8.9,3.8,-24.3,22.7,32.4,101.126,36.44,0,1,0,0,1,NONE,28,132
2026-05-27T23:39:28.728,1061684,0.92,-0.07,-0.37,-4.1,-13.1,1.3,-24.4,23.0,31.0,101.123,36.44,0,1,0,0,1,NONE,14,61
2026-05-27T23:39:28.774,1061732,0.95,-0.11,-0.34,-3.1,-14.0,4.5,-23.4,22.9,32.6,101.129,36.44,0,1,0,0,1,NONE,28,89
2026-05-27T23:39:28.828,1061784,0.91,-0.13,-0.29,-19.0,-9.8,-0.2,-22.7,23.6,31.4,101.123,36.43,0,1,0,0,1,NONE,32,116
2026-05-27T23:39:28.878,1061834,0.88,-0.13,-0.3,-14.8,-10.4,-1.9,-22.4,24.4,32.2,101.126,36.44,0,1,0,0,1,NONE,22,113
2026-05-27T23:39:28.927,1061882,0.88,-0.14,-0.31,-17.2,-4.0,-6.2,-21.6,25.1,32.5,101.128,36.44,0,1,0,0,1,NONE,50,188
2026-05-27T23:39:28.978,1061934,0.74,-0.29,-0.34,-32.9,-2.8,-10.4,-21.4,24.9,32.6,101.12,36.44,0,1,0,0,1,NONE,53,121
2026-05-27T23:39:29.029,1061986,0.81,0.01,-0.81,-13.6,42.2,10.7,-22.2,26.9,32.3,101.124,36.43,0,1,0,0,1,NONE,90,167
2026-05-27T23:39:29.074,1062032,0.76,-0.1,-0.22,19.6,10.1,17.9,-23.2,26.6,32.8,101.126,36.44,0,1,0,0,1,NONE,65,268
2026-05-27T23:39:29.129,1062086,1.08,-0.06,-0.58,13.3,40.3,11.4,-23.8,26.6,33.9,101.124,36.44,0,1,0,0,1,NONE,48,142
2026-05-27T23:39:29.167,1062132,1.05,-0.25,-0.42,6.0,45.8,7.8,-25.4,26.4,32.9,101.127,36.44,0,1,0,0,1,NONE,22,139
2026-05-27T23:39:29.229,1062184,0.92,-0.14,-0.44,31.5,43.4,6.0,-26.7,26.0,32.8,101.127,36.43,0,1,0,0,1,NONE,33,222
2026-05-27T23:39:29.279,1062235,0.79,-0.27,-0.47,20.0,56.2,11.2,-28.5,25.7,32.1,101.122,36.43,0,1,0,0,1,NONE,39,214
2026-05-27T23:39:29.327,1062284,0.96,-0.12,-0.55,38.8,62.6,10.9,-30.3,24.6,31.5,101.125,36.44,0,0,0,0,0,NONE,31,200
2026-05-27T23:39:29.375,1062332,0.89,-0.33,-0.39,-14.0,48.9,41.0,-31.8,24.1,30.9,101.126,36.43,0,0,0,0,0,NONE,62,230
2026-05-27T23:39:29.429,1062384,0.86,-0.05,-0.61,76.5,28.6,34.6,-33.8,24.0,31.4,101.125,36.43,0,0,0,0,0,NONE,32,173
2026-05-27T23:39:29.475,1062434,0.75,-0.31,-0.62,35.5,35.8,28.0,-34.1,22.8,30.8,101.123,36.43,0,0,0,0,0,NONE,73,284
2026-05-27T23:39:29.526,1062483,0.76,-0.05,-0.59,-48.8,26.1,0.2,-36.5,22.8,30.3,101.126,36.43,0,0,0,0,0,NONE,55,91
2026-05-27T23:39:29.571,1062534,0.85,-0.03,-0.93,7.7,18.7,2.9,-36.2,23.7,29.9,101.124,36.43,0,0,0,0,0,NONE,72,179
2026-05-27T23:39:29.630,1062586,0.78,0.24,-0.74,6.0,5.8,-7.4,-36.6,23.8,30.3,101.124,36.44,0,0,0,0,0,NONE,44,166
2026-05-27T23:39:29.670,1062632,0.81,-0.0,-0.64,1.3,-8.2,-2.6,-36.5,23.7,30.3,101.126,36.43,0,0,0,0,0,NONE,24,115
2026-05-27T23:39:29.728,1062684,0.79,0.23,-0.74,14.2,0.6,1.2,-36.5,23.9,29.8,101.128,36.44,0,1,0,0,1,NONE,29,166
2026-05-27T23:39:29.775,1062732,0.74,0.17,-0.65,-0.4,-2.9,-2.9,-35.8,23.4,31.5,101.128,36.45,0,1,0,0,1,NONE,40,257
2026-05-27T23:39:29.827,1062785,0.64,0.12,-0.62,4.2,0.4,-4.2,-35.8,23.9,30.7,101.124,36.43,0,0,0,0,0,NONE,34,116
2026-05-27T23:39:29.874,1062835,0.69,0.16,-0.63,9.0,-3.8,1.8,-35.5,23.3,31.8,101.128,36.44,0,0,0,0,0,NONE,53,264
2026-05-27T23:39:29.923,1062884,0.61,0.12,-0.57,-2.1,3.1,2.7,-35.3,23.1,32.7,101.132,36.43,0,0,0,0,0,NONE,41,230
2026-05-27T23:39:29.969,1062932,0.56,0.13,-0.45,-5.8,-4.0,2.5,-35.4,23.3,32.4,101.124,36.44,0,0,0,0,0,NONE,46,234
2026-05-27T23:39:30.019,1062984,0.84,0.31,-0.84,25.6,41.4,0.7,-36.1,22.8,32.6,101.126,36.43,0,0,0,0,0,NONE,76,449
2026-05-27T23:39:30.064,1063034,1.05,-0.13,-0.91,13.8,-23.4,-6.3,-36.5,22.7,30.4,101.128,36.43,0,0,0,0,0,NONE,75,474
2026-05-27T23:39:30.120,1063082,0.75,0.08,-0.82,-2.3,20.1,-7.2,-36.0,22.4,31.6,101.126,36.43,0,0,0,0,0,NONE,95,298
2026-05-27T23:39:30.178,1063134,0.9,-0.09,-0.76,-33.0,30.3,-13.4,-36.1,22.6,31.7,101.127,36.44,0,0,0,0,0,NONE,76,357
2026-05-27T23:39:30.224,1063186,1.04,-0.23,-0.69,-36.8,-34.5,-17.1,-36.6,23.3,32.7,101.124,36.44,0,0,0,0,0,NONE,64,293
2026-05-27T23:39:30.276,1063232,0.67,-0.17,-0.57,7.4,-36.3,-22.4,-35.6,24.2,33.2,101.13,36.43,0,0,0,0,0,NONE,69,331
2026-05-27T23:39:30.325,1063285,0.74,-0.26,-0.55,7.7,-20.0,-24.1,-33.7,23.7,34.2,101.128,36.43,0,0,0,0,0,NONE,54,275
2026-05-27T23:39:30.377,1063332,1.03,-0.2,-0.83,-6.4,-66.0,-19.9,-32.4,23.2,32.8,101.125,36.44,0,0,0,0,0,NONE,59,313
2026-05-27T23:39:30.425,1063384,0.49,-0.15,-0.54,15.6,-27.3,-17.1,-30.0,22.5,34.0,101.127,36.43,0,0,0,0,0,NONE,45,264
2026-05-27T23:39:30.480,1063436,0.66,-0.2,-0.5,6.0,-9.4,-12.4,-29.4,21.9,32.8,101.127,36.43,0,0,0,0,0,NONE,48,304
2026-05-27T23:39:30.528,1063484,1.06,-0.15,-0.73,5.0,-13.4,3.4,-28.3,22.2,34.9,101.126,36.43,0,0,0,0,0,NONE,64,292
2026-05-27T23:39:30.576,1063532,0.65,-0.12,-0.4,15.4,-13.7,2.3,-27.4,21.7,33.9,101.126,36.44,0,0,0,0,0,NONE,65,399
2026-05-27T23:39:30.628,1063584,0.87,-0.21,-0.42,10.8,6.7,7.2,-27.2,21.0,34.7,101.125,36.43,0,0,0,0,0,NONE,65,391
2026-05-27T23:39:30.677,1063634,0.88,-0.18,-0.43,8.2,22.1,7.5,-27.3,20.5,34.6,101.127,36.43,0,0,0,0,0,NONE,27,173
2026-05-27T23:39:30.730,1063682,0.71,-0.07,-0.36,27.2,-32.7,13.1,-26.9,20.5,35.4,101.124,36.43,0,0,0,0,0,NONE,99,411
2026-05-27T23:39:30.777,1063734,0.68,-0.28,-0.73,-26.1,29.2,-4.9,-26.7,20.3,33.7,101.124,36.43,0,0,0,0,0,NONE,55,178
2026-05-27T23:39:30.817,1063786,0.8,0.05,-0.4,53.5,9.1,5.4,-27.3,20.6,33.9,101.123,36.43,0,0,0,0,0,NONE,119,629
2026-05-27T23:39:30.866,1063832,1.03,-0.22,-0.54,6.8,-14.3,-6.0,-28.0,19.0,34.0,101.125,36.43,0,0,0,0,0,NONE,111,650
2026-05-27T23:39:30.917,1063884,0.65,0.01,-0.44,26.9,13.7,7.9,-27.1,19.1,33.3,101.129,36.43,0,1,0,0,1,NONE,61,366
2026-05-27T23:39:30.966,1063932,0.94,-0.16,-0.54,18.2,37.5,4.5,-27.8,18.5,34.2,101.124,36.43,0,1,0,0,1,NONE,53,285
2026-05-27T23:39:31.025,1063984,0.93,-0.1,-0.63,17.5,34.7,6.3,-28.5,17.9,34.9,101.121,36.43,0,0,0,0,0,NONE,91,532
2026-05-27T23:39:31.084,1064036,0.7,-0.05,-0.55,-1.9,0.7,-2.3,-29.2,17.7,34.0,101.125,36.42,0,0,0,0,0,NONE,45,254
2026-05-27T23:39:31.120,1064084,0.73,-0.06,-0.52,-12.1,16.0,-2.9,-29.6,17.9,34.3,101.126,36.43,0,0,0,0,0,NONE,40,286
2026-05-27T23:39:31.172,1064132,0.78,-0.07,-0.52,-5.6,20.6,-1.8,-29.9,18.7,33.5,101.129,36.43,0,0,0,0,0,NONE,98,511
2026-05-27T23:39:31.234,1064184,0.82,0.02,-0.95,-35.4,16.9,-2.6,-30.4,18.2,32.4,101.129,36.43,0,0,0,0,0,NONE,78,449
2026-05-27T23:39:31.280,1064234,0.72,0.06,-0.68,51.5,-18.4,7.4,-30.6,18.9,32.8,101.127,36.43,0,0,0,0,0,NONE,88,240
2026-05-27T23:39:31.326,1064283,0.75,-0.23,-0.7,10.6,-3.4,-5.2,-29.2,17.9,34.2,101.128,36.43,0,0,0,0,0,NONE,74,244
2026-05-27T23:39:31.376,1064334,0.78,-0.03,-0.7,43.5,-4.3,-2.3,-28.9,17.2,33.6,101.127,36.43,0,0,0,0,0,NONE,95,464
2026-05-27T23:39:31.422,1064386,0.99,-0.14,-0.82,10.6,-19.2,-8.3,-28.4,16.2,32.9,101.126,36.43,0,0,0,0,0,NONE,70,354
2026-05-27T23:39:31.474,1064432,0.6,-0.11,-0.6,5.8,-8.9,-12.1,-27.4,15.7,33.2,101.125,36.43,0,0,0,0,0,NONE,47,263
2026-05-27T23:39:31.520,1064484,0.79,-0.02,-0.61,23.5,-3.7,-4.1,-27.3,15.4,32.0,101.126,36.43,0,0,0,0,0,NONE,34,185
2026-05-27T23:39:31.578,1064532,0.79,-0.17,-0.59,25.6,-7.3,4.7,-26.5,14.8,33.5,101.127,36.43,0,0,0,0,0,NONE,16,128
2026-05-27T23:39:31.628,1064584,0.88,-0.09,-0.48,6.7,0.2,0.9,-26.0,13.7,31.8,101.128,36.43,0,0,0,0,0,NONE,131,624
2026-05-27T23:39:31.676,1064636,1.0,-0.04,-0.56,-4.5,-49.0,-0.9,-25.6,13.6,32.2,101.124,36.42,0,0,0,0,0,NONE,82,314
2026-05-27T23:39:31.727,1064684,0.68,-0.15,-0.44,14.5,-12.8,-3.4,-24.1,14.3,32.5,101.122,36.43,0,1,0,0,1,NONE,49,302
2026-05-27T23:39:31.776,1064732,0.89,-0.09,-0.54,20.0,-8.8,0.3,-23.0,13.9,32.6,101.125,36.43,0,1,0,0,1,NONE,54,381
2026-05-27T23:39:31.825,1064784,0.84,-0.17,-0.39,24.2,-10.4,-0.6,-22.3,12.6,32.8,101.129,36.43,0,0,0,0,0,NONE,160,915
2026-05-27T23:39:31.877,1064834,0.96,-0.16,-0.48,15.7,-14.1,-0.8,-21.8,12.0,31.7,101.126,36.42,0,0,0,0,0,NONE,76,441
2026-05-27T23:39:31.916,1064883,0.9,-0.19,-0.34,12.2,-40.6,-8.9,-20.8,11.8,33.7,101.124,36.42,0,1,0,0,1,NONE,91,647
2026-05-27T23:39:31.968,1064934,0.82,-0.09,-0.3,44.6,-25.7,-5.1,-19.1,11.7,32.5,101.125,36.43,0,1,0,0,1,NONE,115,509
2026-05-27T23:39:32.030,1064986,1.03,-0.27,-0.49,28.5,0.7,-2.6,-17.6,10.9,31.1,101.126,36.43,0,1,0,0,1,NONE,321,1669
2026-05-27T23:39:32.075,1065032,0.98,0.12,-0.3,-10.4,-9.6,-10.7,-17.9,9.5,30.5,101.125,36.43,0,1,0,0,1,NONE,193,1006
2026-05-27T23:39:32.128,1065083,0.78,-0.18,-0.28,27.0,-54.4,-10.4,-17.9,9.5,30.5,101.129,36.43,0,1,0,0,1,NONE,51,302
2026-05-27T23:39:32.175,1065132,0.85,0.11,-0.54,8.4,-10.2,2.5,-14.3,8.9,30.0,101.126,36.43,0,1,0,0,1,NONE,56,345
2026-05-27T23:39:32.218,1065184,0.93,0.1,-0.45,21.1,8.4,1.0,-14.1,8.4,29.9,101.123,36.42,0,1,0,0,1,NONE,62,322
2026-05-27T23:39:32.271,1065236,0.95,-0.04,-0.33,20.1,-0.9,3.7,-14.0,8.0,29.2,101.125,36.42,0,1,0,0,1,NONE,291,1282
2026-05-27T23:39:32.315,1065284,0.93,0.01,-0.24,1.0,10.8,0.7,-14.0,8.0,28.8,101.127,36.43,0,1,0,0,1,NONE,328,1299
2026-05-27T23:39:32.367,1065332,0.96,0.03,-0.28,20.3,8.8,-1.5,-14.4,7.7,28.9,101.126,36.42,0,1,0,0,1,NONE,80,545
2026-05-27T23:39:32.428,1065384,0.82,-0.02,-0.28,-2.9,17.2,-8.0,-14.5,7.4,29.2,101.127,36.43,0,1,0,0,1,NONE,46,302
2026-05-27T23:39:32.479,1065434,0.98,-0.04,-0.36,-1.1,11.5,-5.4,-14.6,8.0,28.0,101.126,36.42,0,1,0,0,1,NONE,168,830
2026-05-27T23:39:32.526,1065483,0.9,0.06,-0.29,-5.3,14.3,-5.6,-14.6,8.3,30.2,101.124,36.43,0,1,0,0,1,NONE,282,1604
2026-05-27T23:39:32.571,1065534,0.91,-0.02,-0.34,4.0,11.3,-4.5,-14.0,7.9,29.6,101.125,36.43,0,1,0,0,1,NONE,70,396
2026-05-27T23:39:32.623,1065586,0.82,-0.09,-0.28,-11.5,13.0,-5.4,-14.6,8.8,29.1,101.126,36.42,0,1,0,0,1,NONE,60,419
2026-05-27T23:39:32.671,1065632,0.84,0.02,-0.41,-10.6,2.2,2.0,-15.0,9.5,31.0,101.126,36.43,0,1,0,0,1,NONE,71,387
2026-05-27T23:39:32.720,1065684,1.08,0.06,-0.74,30.8,-7.8,17.0,-14.6,8.3,29.9,101.124,36.42,0,1,0,0,1,NONE,44,211
2026-05-27T23:39:32.777,1065732,0.79,-0.1,-0.29,10.2,6.6,10.3,-14.0,7.4,27.7,101.123,36.42,0,1,0,0,1,NONE,68,333
2026-05-27T23:39:32.831,1065784,1.03,0.04,-0.49,31.6,6.7,8.5,-15.0,7.4,28.3,101.122,36.43,0,1,0,0,1,NONE,54,289
2026-05-27T23:39:32.877,1065836,0.94,-0.16,-0.27,21.6,-4.8,-1.7,-14.1,6.5,27.8,101.124,36.42,0,1,0,0,1,NONE,45,156
2026-05-27T23:39:32.922,1065884,1.08,-0.06,-0.47,12.6,13.1,-8.5,-14.2,6.4,27.2,101.126,36.42,0,1,0,0,1,NONE,41,249
2026-05-27T23:39:32.974,1065932,0.98,-0.15,-0.35,18.1,-3.5,-13.7,-13.8,6.3,27.0,101.125,36.43,0,1,0,0,1,NONE,33,206
2026-05-27T23:39:33.022,1065984,0.86,-0.04,-0.34,5.2,9.8,-20.1,-12.9,5.8,26.5,101.126,36.42,0,1,0,0,1,NONE,45,241
2026-05-27T23:39:33.076,1066034,0.97,-0.12,-0.4,20.4,-4.6,-21.0,-12.8,6.9,26.5,101.127,36.43,0,1,0,0,1,NONE,76,396
2026-05-27T23:39:33.122,1066083,0.84,-0.21,-0.32,34.9,-15.1,-15.3,-11.0,5.7,26.7,101.126,36.42,0,1,0,0,1,NONE,36,257
2026-05-27T23:39:33.164,1066134,0.94,-0.08,-0.27,31.4,-9.9,-16.8,-10.1,4.4,27.0,101.118,36.42,0,1,0,0,1,NONE,55,321
2026-05-27T23:39:33.228,1066186,0.93,-0.15,-0.22,17.6,-25.1,-14.7,-9.4,4.1,24.8,101.125,36.42,0,1,0,0,1,NONE,67,351
2026-05-27T23:39:33.276,1066232,0.86,-0.12,-0.19,25.2,-29.6,-2.0,-8.0,4.0,24.3,101.128,36.43,0,1,0,0,1,NONE,30,182
2026-05-27T23:39:33.326,1066284,1.05,-0.17,-0.37,39.2,-15.0,-4.8,-6.4,2.8,22.1,101.125,36.42,0,1,0,0,1,NONE,71,471
2026-05-27T23:39:33.377,1066332,0.9,-0.09,-0.16,-14.3,-32.3,-16.1,-5.9,2.9,19.9,101.128,36.42,0,1,0,0,1,NONE,51,292
2026-05-27T23:39:33.429,1066384,0.86,-0.17,-0.37,29.3,-17.4,-13.6,-4.7,3.3,21.1,101.126,36.42,0,1,0,0,1,NONE,68,423
2026-05-27T23:39:33.465,1066436,0.98,-0.08,-0.3,33.4,-13.9,-8.4,-3.5,2.7,19.9,101.122,36.42,0,1,0,0,1,NONE,71,331
2026-05-27T23:39:33.517,1066484,0.94,-0.13,-0.32,21.7,-10.7,-5.1,-3.5,2.8,18.9,101.125,36.42,0,1,0,0,1,NONE,72,469
2026-05-27T23:39:33.561,1066532,0.96,-0.04,-0.24,53.0,-16.2,-3.5,-2.9,1.7,18.5,101.127,36.42,0,1,0,0,1,NONE,43,253
2026-05-27T23:39:33.625,1066584,0.87,-0.14,-0.12,40.3,-12.6,-4.3,-2.1,1.0,16.4,101.122,36.42,0,1,0,1,2,NONE,64,409
2026-05-27T23:39:33.673,1066634,0.91,-0.18,-0.26,42.5,-16.2,-2.6,-1.4,0.5,15.2,101.127,36.42,0,1,0,1,2,NONE,48,368
2026-05-27T23:39:33.728,1066683,0.87,-0.3,-0.09,12.6,-5.9,4.7,-1.3,0.2,14.5,101.127,36.42,0,1,0,1,2,NONE,59,391
2026-05-27T23:39:33.769,1066734,0.93,-0.18,-0.08,-15.6,15.4,6.4,-1.2,0.4,14.6,101.126,36.42,0,1,0,1,2,NONE,51,310
2026-05-27T23:39:33.821,1066786,0.93,-0.01,-0.19,-15.9,27.2,-7.1,-1.8,0.4,14.2,101.129,36.42,0,1,0,1,2,NONE,44,246
2026-05-27T23:39:33.870,1066832,0.91,-0.03,-0.1,4.5,25.5,-8.2,-1.5,1.0,15.3,101.125,36.43,0,1,0,1,2,NONE,48,270
2026-05-27T23:39:33.916,1066884,0.92,-0.12,-0.24,-8.7,19.0,-16.3,-1.7,1.0,17.2,101.125,36.42,0,1,0,0,1,NONE,43,229
2026-05-27T23:39:33.966,1066932,0.98,-0.11,-0.07,7.1,3.6,-15.6,-1.1,1.2,16.6,101.122,36.42,0,1,0,0,1,NONE,37,211
2026-05-27T23:39:34.029,1066984,1.13,-0.17,-0.18,-7.1,16.9,-17.1,0.1,1.9,16.9,101.127,36.42,0,1,0,1,2,NONE,77,270
2026-05-27T23:39:34.074,1067036,0.83,-0.17,-0.31,14.2,7.6,-12.0,0.5,2.3,15.8,101.124,36.42,0,1,0,1,2,NONE,53,141
2026-05-27T23:39:34.127,1067084,0.96,-0.26,-0.26,34.8,21.5,-4.0,1.0,2.0,16.4,101.128,36.42,0,1,0,0,1,NONE,39,151
2026-05-27T23:39:34.174,1067132,0.31,-0.06,-0.35,71.8,4.6,-2.4,-0.2,1.4,15.0,101.125,36.42,0,1,0,0,1,NONE,83,458
2026-05-27T23:39:34.224,1067184,0.88,-0.3,-0.37,24.0,12.1,-5.0,-0.3,0.2,14.2,101.124,36.42,0,1,0,0,1,NONE,99,648
2026-05-27T23:39:34.277,1067234,0.9,-0.28,-0.35,27.2,15.1,-6.4,0.2,1.0,13.1,101.124,36.42,0,1,0,0,1,NONE,141,788
2026-05-27T23:39:34.324,1067282,0.86,-0.31,-0.29,37.5,11.1,-4.0,-0.0,0.2,12.2,101.125,36.41,0,1,0,0,1,NONE,216,1269
2026-05-27T23:39:34.377,1067334,0.96,-0.34,-0.32,36.3,12.5,-0.4,0.1,-0.9,12.5,101.125,36.42,0,1,0,0,1,NONE,199,956
2026-05-27T23:39:34.424,1067386,0.84,-0.48,-0.29,5.3,10.8,8.7,0.7,-1.1,10.8,101.128,36.41,0,1,0,0,1,NONE,98,489
2026-05-27T23:39:34.475,1067432,0.91,-0.21,-0.29,-3.8,14.9,9.1,0.4,-0.9,10.9,101.126,36.42,0,1,0,0,1,NONE,99,516
2026-05-27T23:39:34.527,1067484,0.89,-0.33,-0.23,-12.5,8.3,12.3,-0.2,-1.3,11.4,101.128,36.42,0,1,0,0,1,NONE,70,397
2026-05-27T23:39:34.576,1067532,0.96,-0.26,-0.24,-11.2,-4.9,17.2,-0.3,-0.6,12.3,101.127,36.42,0,1,0,0,1,NONE,43,222
2026-05-27T23:39:34.630,1067584,0.94,-0.26,-0.26,-11.6,-23.7,21.6,-1.0,-0.7,13.2,101.126,36.42,0,1,0,0,1,NONE,39,182
2026-05-27T23:39:34.677,1067636,0.84,-0.39,-0.49,-26.0,5.5,7.3,-1.3,-0.4,11.2,101.123,36.41,0,1,0,0,1,NONE,57,441
2026-05-27T23:39:34.727,1067684,0.93,-0.11,-0.14,-87.0,-20.9,-7.8,-1.0,0.0,12.8,101.128,36.43,0,1,0,0,1,NONE,52,280
2026-05-27T23:39:34.776,1067732,1.02,-0.21,-0.48,-14.7,4.5,-3.3,-0.6,0.6,14.8,101.125,36.42,0,1,0,0,1,NONE,57,430
2026-05-27T23:39:34.825,1067784,0.97,-0.04,-0.27,-4.8,-4.9,6.9,0.2,1.1,15.3,101.123,36.42,0,1,0,0,1,NONE,44,296
2026-05-27T23:39:34.873,1067834,0.96,-0.28,-0.27,-24.4,9.2,3.7,-0.0,1.5,15.5,101.125,36.42,0,1,0,0,1,NONE,41,256
2026-05-27T23:39:34.929,1067882,0.92,-0.1,-0.3,-13.1,6.1,8.5,-0.4,1.6,17.1,101.125,36.42,0,1,0,0,1,NONE,53,325
2026-05-27T23:39:34.969,1067934,0.91,-0.14,-0.29,-12.4,2.7,6.2,-0.8,1.8,16.8,101.121,36.42,0,1,0,0,1,NONE,55,320
2026-05-27T23:39:35.030,1067986,0.9,-0.14,-0.25,-6.1,6.5,0.7,-0.9,2.1,16.7,101.125,36.42,0,1,0,0,1,NONE,46,337
2026-05-27T23:39:35.066,1068032,0.92,-0.17,-0.25,-8.4,8.7,-0.8,-0.6,2.7,18.2,101.122,36.42,0,1,0,0,1,NONE,46,263
2026-05-27T23:39:35.126,1068084,0.91,-0.13,-0.24,-3.2,8.2,-3.6,-0.7,2.4,18.6,101.128,36.42,0,1,0,0,1,NONE,56,235
2026-05-27T23:39:35.174,1068132,0.91,-0.18,-0.2,-17.1,9.3,-6.3,-0.5,3.3,17.3,101.127,36.42,0,1,0,0,1,NONE,42,222
2026-05-27T23:39:35.228,1068184,0.86,-0.2,-0.16,-23.5,7.4,-5.1,-0.5,3.8,19.1,101.123,36.41,0,1,0,0,1,NONE,54,216
2026-05-27T23:39:35.273,1068235,1.03,-0.29,-0.4,-40.6,33.3,-8.4,-0.1,3.8,19.7,101.123,36.42,0,1,0,0,1,NONE,40,191
2026-05-27T23:39:35.319,1068284,0.93,-0.24,-0.12,21.3,-3.1,9.6,-0.3,5.6,21.6,101.125,36.42,0,1,0,0,1,NONE,52,262
2026-05-27T23:39:35.367,1068332,1.03,-0.39,-0.45,-40.2,9.1,-1.3,-0.5,5.0,20.5,101.121,36.42,0,1,0,0,1,NONE,61,335
2026-05-27T23:39:35.428,1068384,0.88,-0.35,-0.31,-5.9,4.6,3.7,-0.5,4.9,21.6,101.12,36.41,0,1,0,0,1,NONE,38,148
2026-05-27T23:39:35.478,1068434,0.85,-0.46,-0.24,-14.5,-3.8,-0.9,-0.1,5.5,22.7,101.124,36.42,0,1,0,0,1,NONE,120,604
2026-05-27T23:39:35.526,1068482,0.88,-0.32,-0.22,4.2,3.7,8.2,-0.1,6.2,22.0,101.126,36.42,0,1,0,0,1,NONE,85,488
2026-05-27T23:39:35.578,1068534,0.83,-0.36,-0.26,-2.2,2.2,7.4,-0.3,6.3,22.3,101.125,36.42,0,1,0,0,1,NONE,128,737
2026-05-27T23:39:35.626,1068586,0.86,-0.31,-0.26,-9.2,2.4,7.3,-0.5,6.5,22.6,101.133,36.42,0,1,0,0,1,NONE,189,1130
2026-05-27T23:39:35.675,1068634,0.86,-0.29,-0.24,-2.4,9.1,10.6,-0.5,6.5,22.6,101.124,36.42,0,1,0,0,1,NONE,159,1053
2026-05-27T23:39:35.718,1068686,0.92,-0.26,-0.21,3.1,8.3,15.1,-1.3,5.7,23.1,101.125,36.42,0,1,0,0,1,NONE,167,934
2026-05-27T23:39:35.772,1068732,0.91,-0.35,-0.18,-0.5,1.8,19.9,-1.3,6.0,23.2,101.122,36.42,0,1,0,0,1,NONE,151,994
2026-05-27T23:39:35.830,1068786,0.84,-0.38,-0.24,-2.5,-9.3,28.3,-1.8,5.2,21.4,101.123,36.42,0,1,0,0,1,NONE,118,553
2026-05-27T23:39:35.870,1068832,0.86,-0.24,-0.23,10.0,-3.5,17.8,-2.4,4.9,22.9,101.123,36.42,0,1,0,0,1,NONE,206,1361
2026-05-27T23:39:35.926,1068884,1.04,-0.22,-0.3,-7.8,20.1,2.2,-2.6,5.2,23.2,101.126,36.41,0,1,0,0,1,NONE,144,939
2026-05-27T23:39:35.975,1068936,0.73,-0.17,-0.18,-52.4,17.1,-20.9,-2.4,6.7,24.9,101.126,36.41,0,1,0,0,1,NONE,213,1636
2026-05-27T23:39:36.023,1068984,0.98,-0.31,-0.42,8.2,39.4,-7.4,-2.9,7.3,24.9,101.126,36.42,0,1,0,0,1,NONE,116,774
2026-05-27T23:39:36.074,1069032,1.04,-0.19,-0.4,-56.0,37.9,-15.3,-4.1,7.8,26.0,101.125,36.42,0,1,0,0,1,NONE,166,915
2026-05-27T23:39:36.120,1069084,1.0,-0.12,-0.36,7.9,11.8,1.9,-4.8,9.1,25.6,101.125,36.42,0,0,0,0,0,NONE,221,1186
2026-05-27T23:39:36.176,1069132,0.77,-0.38,-0.16,11.4,21.1,13.7,-4.8,8.6,26.8,101.127,36.42,0,0,0,0,0,NONE,118,676
2026-05-27T23:39:36.222,1069184,0.85,-0.38,-0.32,-42.8,30.6,5.4,-5.3,9.0,28.5,101.124,36.41,0,0,0,0,0,NONE,192,1034
2026-05-27T23:39:36.271,1069234,1.1,-0.27,-0.32,-64.5,9.8,6.1,-5.9,10.8,28.8,101.124,36.42,0,0,0,0,0,NONE,85,439
2026-05-27T23:39:36.317,1069282,0.89,-0.21,-0.35,-26.8,3.2,13.1,-5.8,12.4,29.2,101.123,36.42,0,0,0,0,0,NONE,122,651
2026-05-27T23:39:36.377,1069334,0.84,-0.33,-0.27,-25.6,4.5,11.6,-6.7,12.9,30.8,101.124,36.42,0,0,0,0,0,NONE,101,281
2026-05-27T23:39:36.430,1069386,0.85,-0.34,-0.29,-26.6,4.7,8.4,-7.0,13.5,31.1,101.127,36.42,0,0,0,0,0,NONE,63,242
2026-05-27T23:39:36.477,1069432,0.88,-0.3,-0.3,-22.8,13.4,10.3,-7.0,14.3,31.6,101.124,36.41,0,0,0,0,0,NONE,66,216
2026-05-27T23:39:36.527,1069486,0.97,-0.23,-0.31,-21.5,2.1,7.6,-7.0,15.4,31.2,101.126,36.42,0,0,0,0,0,NONE,95,167
2026-05-27T23:39:36.573,1069532,0.84,-0.27,-0.26,-11.9,3.1,5.7,-7.1,15.5,31.6,101.123,36.41,0,0,0,0,0,NONE,40,171
2026-05-27T23:39:36.617,1069584,0.93,-0.2,-0.31,-5.1,7.4,5.2,-7.2,16.1,31.5,101.123,36.41,0,0,0,0,0,NONE,39,211
2026-05-27T23:39:36.665,1069635,0.96,-0.37,-0.43,-11.7,-2.1,7.4,-6.9,16.1,32.7,101.126,36.42,0,0,0,0,0,NONE,45,251
2026-05-27T23:39:36.714,1069684,0.76,-0.33,-0.18,22.6,-31.9,6.6,-6.8,16.1,30.5,101.125,36.42,0,0,0,0,0,NONE,92,179
2026-05-27T23:39:36.775,1069732,1.02,-0.4,-0.43,26.7,-4.2,9.7,-6.2,15.3,31.7,101.124,36.41,0,0,0,0,0,NONE,42,137
2026-05-27T23:39:36.828,1069784,0.82,-0.44,-0.29,27.0,-9.7,3.5,-5.5,14.1,30.7,101.125,36.41,0,1,0,0,1,NONE,45,170
2026-05-27T23:39:36.874,1069834,0.84,-0.5,-0.22,7.6,-7.3,0.7,-5.6,13.8,30.2,101.124,36.41,0,1,0,0,1,NONE,36,99
2026-05-27T23:39:36.922,1069882,0.86,-0.33,-0.23,3.7,-5.7,-3.0,-5.1,14.2,29.1,101.124,36.42,0,0,0,0,0,NONE,42,237
2026-05-27T23:39:36.974,1069934,0.94,-0.39,-0.15,-0.7,-6.2,-4.3,-4.6,14.2,30.1,101.124,36.41,0,0,0,0,0,NONE,52,207
2026-05-27T23:39:37.022,1069986,0.89,-0.24,-0.14,15.9,-3.8,-8.9,-3.9,14.2,28.9,101.125,36.41,0,1,0,0,1,NONE,52,322
2026-05-27T23:39:37.070,1070032,0.88,-0.51,-0.3,-22.5,-0.5,4.2,-3.7,14.0,28.6,101.123,36.41,0,1,0,0,1,NONE,72,302
2026-05-27T23:39:37.127,1070084,0.8,-0.38,-0.17,-17.3,12.8,15.5,-3.8,15.2,29.7,101.127,36.41,0,1,0,0,1,NONE,106,680
2026-05-27T23:39:37.169,1070132,0.88,-0.33,-0.26,-42.1,12.5,20.7,-5.2,15.8,30.2,101.123,36.41,0,1,0,0,1,NONE,164,1175
2026-05-27T23:39:37.229,1070184,0.92,-0.17,-0.13,-29.6,3.0,19.3,-5.0,17.1,31.3,101.124,36.42,0,1,0,0,1,NONE,83,490
2026-05-27T23:39:37.279,1070235,0.98,-0.19,-0.19,-3.0,25.9,12.6,-6.0,17.8,30.8,101.127,36.42,0,1,0,0,1,NONE,295,1313
2026-05-27T23:39:37.328,1070284,0.82,-0.25,-0.25,-23.4,0.5,-1.2,-6.0,17.6,31.0,101.127,36.41,0,1,0,0,1,NONE,102,585
2026-05-27T23:39:37.376,1070332,0.99,-0.45,-0.32,-27.7,28.0,3.7,-5.9,19.5,32.3,101.125,36.41,0,1,0,0,1,NONE,58,319
2026-05-27T23:39:37.428,1070384,0.95,-0.16,-0.21,-14.1,11.4,2.7,-7.2,19.8,31.4,101.125,36.42,0,0,0,0,0,NONE,190,972
2026-05-27T23:39:37.470,1070434,0.89,-0.28,-0.26,-12.7,-8.2,4.2,-7.5,20.9,32.7,101.124,36.41,0,0,0,0,0,NONE,164,726
2026-05-27T23:39:37.522,1070483,0.92,-0.28,-0.19,-33.4,11.0,0.2,-7.2,21.6,32.6,101.126,36.41,0,1,0,0,1,NONE,67,395
2026-05-27T23:39:37.570,1070534,0.99,-0.19,-0.23,-32.3,11.0,8.2,-7.7,23.1,33.6,101.122,36.41,0,1,0,0,1,NONE,41,196
2026-05-27T23:39:37.629,1070586,0.87,-0.19,-0.17,-21.2,17.8,2.5,-8.9,23.5,32.6,101.129,36.42,0,1,0,0,1,NONE,33,164
2026-05-27T23:39:37.673,1070632,0.87,-0.27,-0.2,-15.1,30.2,-2.1,-9.3,24.6,34.2,101.128,36.42,0,1,0,0,1,NONE,43,316
2026-05-27T23:39:37.728,1070684,0.99,-0.18,-0.17,-4.8,-1.2,-5.4,-9.8,25.4,35.3,101.125,36.42,0,1,0,0,1,NONE,57,362
2026-05-27T23:39:37.776,1070732,0.92,-0.21,-0.14,-1.9,7.1,-9.5,-10.1,26.2,34.5,101.124,36.41,0,1,0,0,1,NONE,39,228
2026-05-27T23:39:37.825,1070784,0.98,-0.18,-0.11,12.0,0.9,-12.3,-9.6,26.1,35.5,101.126,36.42,0,0,0,0,0,NONE,83,440
2026-05-27T23:39:37.873,1070835,0.99,-0.22,-0.26,31.1,-0.9,-11.4,-9.9,25.8,33.1,101.124,36.42,0,0,0,0,0,NONE,89,582
2026-05-27T23:39:37.921,1070884,0.99,-0.28,-0.45,25.8,-2.0,-7.7,-9.7,24.4,32.1,101.124,36.41,0,0,0,0,0,NONE,169,929
2026-05-27T23:39:37.974,1070932,0.78,-0.27,-0.1,96.1,-12.6,0.2,-9.2,23.5,33.5,101.125,36.42,0,0,0,0,0,NONE,122,975
2026-05-27T23:39:38.029,1070984,1.01,-0.41,-0.37,46.6,-12.7,-2.3,-8.2,20.3,32.6,101.125,36.42,0,1,0,0,1,NONE,121,657
2026-05-27T23:39:38.077,1071034,0.85,-0.33,-0.29,71.5,-18.7,-5.2,-7.0,18.6,32.2,101.127,36.41,0,1,0,0,1,NONE,102,652
2026-05-27T23:39:38.126,1071082,0.85,-0.31,-0.25,61.1,-8.2,-5.4,-6.6,16.8,30.9,101.126,36.41,0,1,0,0,1,NONE,124,695
2026-05-27T23:39:38.178,1071134,0.95,-0.45,-0.33,62.7,-13.5,-6.8,-5.7,15.0,29.9,101.123,36.41,0,1,0,0,1,NONE,57,367
2026-05-27T23:39:38.222,1071186,0.81,-0.31,-0.21,77.9,-44.5,-1.2,-4.9,13.9,29.5,101.125,36.41,0,0,0,0,0,NONE,31,202
2026-05-27T23:39:38.275,1071232,0.87,-0.41,-0.21,59.1,-17.0,-8.2,-3.5,11.1,27.5,101.118,36.42,0,0,0,0,0,NONE,54,325
2026-05-27T23:39:38.327,1071284,0.87,-0.32,-0.19,52.0,-3.9,-8.2,-2.2,9.5,26.6,101.125,36.41,0,1,0,0,1,NONE,281,1231
2026-05-27T23:39:38.376,1071332,0.91,-0.3,-0.2,56.3,-23.4,-1.7,-2.2,8.5,24.0,101.126,36.41,0,1,0,0,1,NONE,109,574
2026-05-27T23:39:38.428,1071384,0.84,-0.3,-0.2,42.5,-4.0,-1.3,-1.7,7.2,23.9,101.124,36.41,0,1,0,0,1,NONE,105,675
2026-05-27T23:39:38.478,1071435,0.88,-0.26,-0.22,43.0,14.1,-0.5,-1.2,5.9,21.9,101.124,36.41,0,1,0,0,1,NONE,79,404
2026-05-27T23:39:38.527,1071484,0.95,-0.28,-0.31,26.2,2.8,-1.3,-1.0,5.6,20.6,101.123,36.4,0,1,0,0,1,NONE,60,425
2026-05-27T23:39:38.576,1071532,0.88,-0.27,-0.14,24.9,8.5,2.1,-0.7,5.5,21.5,101.124,36.42,0,1,0,0,1,NONE,117,730
2026-05-27T23:39:38.620,1071584,0.96,-0.32,-0.13,14.6,6.7,7.6,-1.4,5.0,20.7,101.124,36.42,0,1,0,0,1,NONE,62,421
2026-05-27T23:39:38.676,1071634,0.93,-0.24,-0.14,39.4,-1.9,7.5,-1.4,4.7,20.5,101.127,36.42,0,1,0,0,1,NONE,84,446
2026-05-27T23:39:38.715,1071682,1.03,-0.39,-0.31,52.6,-11.9,12.5,-1.3,3.9,18.8,101.124,36.41,0,0,0,0,0,NONE,64,279
2026-05-27T23:39:38.777,1071734,1.15,-0.26,-0.41,-10.8,-3.5,-8.9,-1.3,2.7,17.4,101.125,36.41,0,0,0,0,0,NONE,37,243
2026-05-27T23:39:38.827,1071786,0.75,0.0,-0.23,33.4,-20.7,5.8,-0.9,2.7,17.6,101.125,36.41,0,1,0,0,1,NONE,38,269
2026-05-27T23:39:38.875,1071832,0.93,-0.35,-0.18,35.6,-10.0,-6.1,-0.3,2.3,17.2,101.124,36.41,0,1,0,0,1,NONE,93,515
2026-05-27T23:39:38.928,1071884,1.03,-0.07,-0.25,2.5,-5.9,-3.2,-0.0,2.2,15.0,101.127,36.41,0,1,0,0,1,NONE,299,1803
2026-05-27T23:39:38.981,1071932,0.85,-0.14,-0.23,28.7,-4.1,-2.4,0.6,1.9,14.9,101.126,36.42,0,1,0,0,1,NONE,91,529
2026-05-27T23:39:39.027,1071984,1.0,-0.18,-0.3,34.5,-6.8,4.7,1.0,1.7,14.2,101.128,36.41,0,1,0,0,1,NONE,48,344
2026-05-27T23:39:39.080,1072036,0.84,-0.1,-0.17,31.4,-10.4,2.4,0.8,1.8,13.6,101.124,36.42,0,1,0,0,1,NONE,202,1440
2026-05-27T23:39:39.127,1072084,0.85,-0.19,-0.21,21.8,3.1,2.5,1.0,0.7,12.0,101.127,36.41,0,1,0,0,1,NONE,319,2266
2026-05-27T23:39:39.175,1072132,0.87,-0.18,-0.16,24.0,5.4,-2.9,1.7,1.1,13.0,101.124,36.42,0,1,0,0,1,NONE,123,678
2026-05-27T23:39:39.223,1072184,0.92,-0.2,-0.19,14.8,11.7,-9.8,1.2,0.5,10.8,101.125,36.41,0,1,0,0,1,NONE,83,500
2026-05-27T23:39:39.281,1072234,0.95,-0.18,-0.13,18.2,3.7,-15.9,2.6,0.9,10.2,101.128,36.41,0,1,0,0,1,NONE,734,2772
2026-05-27T23:39:39.316,1072282,0.91,-0.29,-0.1,25.4,3.8,-12.4,2.7,0.3,10.6,101.126,36.41,0,1,0,0,1,NONE,218,1217
2026-05-27T23:39:39.363,1072334,0.95,-0.15,-0.38,33.8,41.4,-8.1,3.3,0.8,9.9,101.126,36.42,0,1,0,0,1,NONE,120,724
2026-05-27T23:39:39.429,1072386,0.88,-0.21,-0.2,72.9,19.0,-1.9,3.4,0.4,7.8,101.126,36.41,0,1,0,0,1,NONE,115,639
2026-05-27T23:39:39.475,1072432,0.94,-0.15,-0.57,62.3,40.2,-5.6,3.1,-0.8,7.3,101.125,36.41,0,1,0,0,1,NONE,132,695
2026-05-27T23:39:39.528,1072484,0.93,-0.31,-0.51,54.6,-0.5,-3.0,3.2,-0.5,5.3,101.122,36.42,0,1,0,0,1,NONE,134,564
2026-05-27T23:39:39.575,1072532,0.83,-0.4,-0.36,20.4,6.0,0.1,3.5,-1.0,5.9,101.124,36.41,0,1,0,0,1,NONE,67,393
2026-05-27T23:39:39.627,1072584,0.82,-0.13,-0.46,-4.9,31.4,-2.6,3.1,-0.9,5.3,101.124,36.41,0,1,0,0,1,NONE,85,620
2026-05-27T23:39:39.679,1072636,0.9,-0.19,-0.44,-20.2,14.7,-1.0,3.2,-0.2,6.3,101.125,36.41,0,1,0,0,1,NONE,152,727
2026-05-27T23:39:39.724,1072684,0.94,-0.22,-0.49,8.7,-0.9,2.4,3.4,0.6,5.7,101.124,36.42,0,1,0,0,1,NONE,89,599
2026-05-27T23:39:39.776,1072732,0.81,-0.28,-0.37,-10.9,-1.9,-2.6,3.7,0.1,6.2,101.127,36.42,0,1,0,0,1,NONE,118,659
2026-05-27T23:39:39.828,1072784,0.84,-0.27,-0.45,-4.0,0.8,3.6,4.0,-0.4,6.0,101.126,36.41,0,0,0,0,0,NONE,129,890
2026-05-27T23:39:39.877,1072834,0.84,-0.31,-0.42,-11.8,0.7,7.1,3.4,-0.4,8.2,101.126,36.41,0,0,0,0,0,NONE,196,1126
2026-05-27T23:39:39.926,1072882,0.89,-0.33,-0.42,-10.6,-6.0,10.1,3.7,-0.2,7.4,101.125,36.41,0,0,0,0,0,NONE,160,1167
2026-05-27T23:39:39.978,1072934,0.83,-0.36,-0.4,-21.4,1.9,11.6,2.9,-0.3,7.5,101.127,36.42,0,0,0,0,0,NONE,254,1493
2026-05-27T23:39:40.029,1072986,0.96,-0.26,-0.45,-12.0,-44.3,17.4,2.6,0.1,8.1,101.129,36.42,0,0,0,0,0,NONE,131,709
2026-05-27T23:39:40.075,1073032,0.72,-0.39,-0.23,-18.4,-60.6,19.2,2.1,-0.6,7.0,101.124,36.41,0,0,0,0,0,NONE,127,663
2026-05-27T23:39:40.128,1073084,0.76,-0.24,-0.09,-9.6,-27.0,28.9,2.7,-1.2,7.4,101.128,36.42,0,0,0,0,0,NONE,124,842
2026-05-27T23:39:40.179,1073132,1.0,-0.35,-0.29,-9.8,23.0,23.1,1.8,-1.6,7.8,101.124,36.42,0,0,0,0,0,NONE,710,4192
2026-05-27T23:39:40.222,1073184,1.15,-0.16,-0.37,-27.6,11.7,15.9,1.0,-1.5,9.7,101.122,36.41,0,0,0,0,0,NONE,563,3748
2026-05-27T23:39:40.279,1073236,0.82,0.13,-0.27,-1.6,7.8,17.1,-0.4,-0.5,11.1,101.121,36.42,0,0,0,0,0,NONE,176,1025
2026-05-27T23:39:40.327,1073284,0.92,-0.07,-0.11,12.3,16.8,13.5,-0.8,-0.8,10.0,101.129,36.42,0,0,0,0,0,NONE,674,3715
2026-05-27T23:39:40.374,1073332,0.9,-0.08,-0.17,-8.8,26.7,7.8,-0.8,-1.6,11.3,101.123,36.42,0,0,0,0,0,NONE,658,3127
2026-05-27T23:39:40.426,1073384,1.03,-0.11,-0.32,-3.4,9.6,6.5,-1.5,-0.9,10.1,101.122,36.41,0,0,0,0,0,NONE,299,1511
2026-05-27T23:39:40.477,1073434,0.97,-0.05,-0.34,-18.4,0.7,-1.0,-1.6,-1.3,11.7,101.124,36.42,0,0,0,0,0,NONE,241,1266
2026-05-27T23:39:40.527,1073483,0.85,-0.11,-0.27,-19.5,-2.8,-2.6,-1.0,-0.9,12.5,101.122,36.41,0,0,0,0,0,NONE,490,2380
2026-05-27T23:39:40.578,1073534,0.93,-0.08,-0.23,-11.8,6.5,-3.8,-0.8,-0.5,12.0,101.123,36.4,0,0,0,0,0,NONE,422,1745
2026-05-27T23:39:40.628,1073586,0.94,-0.17,-0.24,-0.4,-0.2,-1.8,-0.2,-0.3,13.5,101.124,36.41,0,0,0,0,0,NONE,228,1221
2026-05-27T23:39:40.667,1073632,0.9,-0.15,-0.21,-6.8,0.5,-8.9,-0.3,0.4,12.8,101.122,36.41,0,0,0,0,0,NONE,99,587
2026-05-27T23:39:40.728,1073684,0.96,-0.12,-0.2,-5.0,-1.0,-14.6,-0.4,0.2,15.0,101.123,36.41,0,1,0,0,1,NONE,72,266
2026-05-27T23:39:40.774,1073732,0.97,-0.11,-0.22,8.4,-2.1,-19.5,1.2,0.7,12.7,101.122,36.41,0,1,0,0,1,NONE,116,654
2026-05-27T23:39:40.823,1073784,0.94,-0.12,-0.23,37.8,-22.0,-13.6,1.5,1.6,13.3,101.126,36.42,0,1,0,0,1,NONE,141,704
2026-05-27T23:39:40.874,1073836,0.88,-0.27,-0.08,39.3,-7.6,-10.4,2.9,1.1,11.2,101.127,36.41,0,1,0,0,1,NONE,85,341
2026-05-27T23:39:40.927,1073884,1.29,-0.1,-0.45,34.2,15.8,0.5,2.8,1.3,10.2,101.124,36.42,0,1,0,0,1,NONE,107,534
2026-05-27T23:39:40.973,1073932,0.95,-0.29,-0.18,41.9,-8.6,-6.1,3.2,0.1,9.0,101.121,36.42,0,1,0,0,1,NONE,146,764
2026-05-27T23:39:41.028,1073984,0.81,-0.27,-0.37,-7.4,14.4,-4.8,3.2,0.7,9.2,101.125,36.41,0,1,1,1,3,NONE,117,486
2026-05-27T23:39:41.077,1074034,0.93,-0.17,-0.37,16.4,-7.0,-1.3,3.3,0.3,8.5,101.124,36.42,0,1,1,1,3,NONE,90,467
2026-05-27T23:39:41.126,1074082,0.99,-0.31,-0.34,48.3,-5.9,2.0,3.8,-0.8,8.1,101.124,36.41,0,1,1,1,3,NONE,117,694
2026-05-27T23:39:41.177,1074134,0.83,-0.27,-0.28,31.2,-12.9,-14.6,3.8,-0.1,6.2,101.124,36.41,0,1,1,1,3,NONE,114,714
2026-05-27T23:39:41.229,1074186,0.89,-0.2,-0.24,36.5,7.7,-13.7,4.7,0.2,4.9,101.126,36.41,0,1,1,1,3,NONE,61,394
2026-05-27T23:39:41.275,1074232,0.91,-0.28,-0.31,41.1,2.6,-11.6,5.3,0.3,3.7,101.128,36.41,0,1,1,1,3,NONE,76,482
2026-05-27T23:39:41.328,1074284,0.89,-0.2,-0.23,52.0,3.1,-7.8,5.7,0.0,2.0,101.123,36.41,0,1,0,0,1,NONE,103,617
2026-05-27T23:39:41.376,1074332,0.93,-0.27,-0.23,53.3,-2.5,-4.8,6.4,0.2,1.9,101.121,36.41,0,1,0,0,1,NONE,99,637
2026-05-27T23:39:41.427,1074384,0.92,-0.28,-0.19,48.8,-9.1,1.4,6.1,0.3,-0.7,101.125,36.41,0,1,0,0,1,NONE,113,767
2026-05-27T23:39:41.479,1074436,1.0,-0.32,-0.21,45.1,-23.1,6.5,6.1,1.0,-1.6,101.125,36.41,0,1,0,0,1,NONE,72,460
2026-05-27T23:39:41.527,1074484,0.96,-0.32,-0.11,29.4,-30.1,7.1,5.8,0.7,-3.6,101.124,36.41,0,1,0,0,1,NONE,189,1111
2026-05-27T23:39:41.576,1074532,0.89,-0.25,-0.31,29.2,-4.1,1.8,5.6,0.4,-5.1,101.125,36.42,0,1,0,0,1,NONE,203,1242
2026-05-27T23:39:41.626,1074584,1.19,-0.22,-0.49,24.8,10.1,5.1,6.0,0.5,-6.5,101.125,36.41,0,1,1,1,3,NONE,245,1228
2026-05-27T23:39:41.672,1074634,0.81,-0.18,-0.37,-15.0,-18.7,0.6,5.8,0.6,-6.5,101.125,36.42,0,1,1,1,3,NONE,163,1099
2026-05-27T23:39:41.728,1074682,0.86,-0.04,-0.2,61.3,-17.3,16.1,5.7,-0.2,-6.7,101.129,36.41,0,1,0,1,2,NONE,137,757
2026-05-27T23:39:41.777,1074734,0.99,-0.11,-0.15,32.2,-8.2,8.1,4.7,0.4,-8.6,101.127,36.41,0,1,0,1,2,NONE,76,517
2026-05-27T23:39:41.825,1074786,0.98,-0.13,-0.23,1.5,-4.5,1.8,4.8,0.1,-7.7,101.123,36.42,0,1,1,1,3,NONE,116,598
2026-05-27T23:39:41.874,1074832,0.87,-0.11,-0.22,10.1,-3.6,7.6,4.5,0.7,-10.6,101.124,36.41,0,1,1,1,3,NONE,66,442
2026-05-27T23:39:41.926,1074884,0.93,-0.08,-0.21,5.1,5.6,7.2,4.2,1.2,-10.7,101.123,36.42,0,1,1,1,3,NONE,81,507
2026-05-27T23:39:41.976,1074932,0.91,-0.05,-0.16,5.2,6.8,0.7,4.0,-0.2,-10.4,101.126,36.41,0,1,1,1,3,NONE,109,874
2026-05-27T23:39:42.028,1074984,0.93,-0.07,-0.12,-1.3,15.0,-3.9,4.8,0.6,-10.1,101.124,36.41,0,1,0,0,1,NONE,194,1240
2026-05-27T23:39:42.080,1075036,0.93,-0.13,-0.15,-3.7,17.5,-7.0,4.0,0.3,-9.8,101.124,36.41,0,1,0,0,1,NONE,111,619
2026-05-27T23:39:42.127,1075084,1.01,-0.11,-0.16,-3.1,10.8,-11.8,5.3,0.3,-8.8,101.123,36.41,0,1,0,0,1,NONE,103,573
2026-05-27T23:39:42.176,1075132,0.97,-0.18,-0.08,-5.3,-2.3,-10.6,4.9,0.9,-8.6,101.128,36.41,0,1,0,0,1,NONE,142,818
2026-05-27T23:39:42.225,1075184,1.03,-0.24,-0.21,-27.3,10.6,-11.8,5.6,1.2,-8.1,101.124,36.41,0,1,0,0,1,NONE,160,1054
2026-05-27T23:39:42.268,1075234,0.94,-0.21,-0.47,-16.4,30.0,-6.3,5.8,0.9,-7.3,101.124,36.41,0,1,0,0,1,NONE,197,1251
2026-05-27T23:39:42.323,1075282,0.98,-0.1,-0.34,21.9,18.1,0.9,6.3,1.1,-7.0,101.123,36.41,0,1,0,1,2,NONE,98,553
2026-05-27T23:39:42.378,1075334,0.81,-0.28,-0.27,-27.3,19.0,-9.6,7.0,1.4,-5.7,101.126,36.41,0,1,0,1,2,NONE,212,1521
2026-05-27T23:39:42.434,1075386,0.93,-0.27,-0.31,-7.2,24.7,-10.4,7.2,1.3,-6.0,101.121,36.4,0,1,1,1,3,NONE,108,702
2026-05-27T23:39:42.475,1075432,0.97,-0.3,-0.28,15.4,15.3,-3.2,7.2,1.8,-3.8,101.127,36.41,0,1,1,1,3,NONE,133,766
2026-05-27T23:39:42.522,1075484,0.87,-0.31,-0.25,-0.7,15.0,-8.9,7.9,2.0,-4.0,101.129,36.41,0,1,0,0,1,NONE,100,663
2026-05-27T23:39:42.574,1075532,0.89,-0.26,-0.31,2.6,13.1,-3.6,8.2,2.0,-4.3,101.125,36.41,0,1,0,0,1,NONE,59,338
2026-05-27T23:39:42.630,1075584,0.87,-0.29,-0.3,17.6,11.8,0.9,8.4,2.2,-4.4,101.123,36.4,0,1,0,0,1,NONE,67,342
2026-05-27T23:39:42.666,1075636,0.9,-0.34,-0.35,15.1,5.9,3.5,8.4,2.6,-3.1,101.125,36.41,0,1,0,0,1,NONE,104,673
2026-05-27T23:39:42.714,1075684,0.88,-0.34,-0.29,12.5,2.9,4.9,8.5,2.9,-4.1,101.124,36.41,0,1,0,0,1,NONE,117,696
2026-05-27T23:39:42.767,1075732,0.91,-0.29,-0.25,17.3,-2.8,7.1,8.2,2.2,-4.4,101.13,36.41,0,1,0,0,1,NONE,111,1070
2026-05-27T23:39:42.827,1075785,0.9,-0.33,-0.25,13.8,-3.4,8.8,7.9,2.8,-4.2,101.125,36.4,0,1,0,0,1,NONE,139,817
2026-05-27T23:39:42.875,1075834,0.95,-0.3,-0.26,11.8,-5.4,8.7,7.4,2.5,-6.1,101.13,36.41,0,1,0,0,1,NONE,81,467
2026-05-27T23:39:42.922,1075883,0.98,-0.14,-0.27,31.4,-20.9,17.9,7.5,2.4,-6.8,101.123,36.41,0,1,0,0,1,NONE,65,283
2026-05-27T23:39:42.970,1075934,0.86,-0.33,-0.56,33.4,-2.3,-1.7,7.8,2.7,-8.5,101.126,36.41,0,1,0,0,1,NONE,39,178
2026-05-27T23:39:43.023,1075986,0.96,-0.15,-0.53,-34.7,-0.1,-10.3,7.9,2.8,-7.9,101.125,36.41,0,1,0,0,1,NONE,42,279
2026-05-27T23:39:43.070,1076032,0.88,-0.1,-0.25,50.7,-24.7,7.7,7.3,2.6,-7.4,101.126,36.41,0,1,0,0,1,NONE,46,200
2026-05-27T23:39:43.115,1076085,0.89,-0.29,-0.17,15.7,-9.7,4.9,7.5,2.6,-9.1,101.129,36.41,0,1,0,1,2,NONE,36,225
2026-05-27T23:39:43.168,1076132,0.89,-0.05,-0.37,-2.9,3.8,1.2,6.4,3.4,-9.1,101.128,36.4,0,1,0,1,2,NONE,59,319
2026-05-27T23:39:43.228,1076185,0.89,-0.18,-0.22,20.5,-1.3,3.9,6.7,2.9,-9.4,101.125,36.4,0,1,1,1,3,NONE,85,499
2026-05-27T23:39:43.281,1076236,0.87,-0.18,-0.23,11.5,6.7,0.3,7.0,2.9,-10.0,101.124,36.41,0,1,1,1,3,NONE,53,269
2026-05-27T23:39:43.327,1076284,0.9,-0.17,-0.17,1.4,4.3,-5.4,6.7,3.3,-9.3,101.128,36.41,0,1,1,1,3,NONE,58,342
2026-05-27T23:39:43.374,1076332,0.92,-0.15,-0.16,15.5,11.0,-3.2,7.1,3.1,-8.9,101.125,36.41,0,1,1,1,3,NONE,89,458
2026-05-27T23:39:43.422,1076384,0.96,-0.24,-0.18,17.7,4.4,-5.0,7.9,3.9,-10.1,101.125,36.4,0,1,1,1,3,NONE,85,497
2026-05-27T23:39:43.468,1076434,0.98,-0.26,-0.19,-4.1,-4.2,-5.1,7.7,3.1,-8.8,101.128,36.4,0,1,1,1,3,NONE,76,494
2026-05-27T23:39:43.526,1076483,1.06,-0.17,-0.29,-2.9,0.2,-6.7,7.8,3.6,-9.0,101.126,36.41,0,1,1,1,3,NONE,97,495
2026-05-27T23:39:43.578,1076534,1.06,-0.09,-0.55,48.8,-1.0,6.9,8.3,4.1,-9.8,101.125,36.4,0,1,1,1,3,NONE,49,326
2026-05-27T23:39:43.629,1076586,0.86,-0.38,-0.44,10.0,-6.0,-16.9,8.4,4.9,-12.7,101.124,36.4,0,1,0,0,1,NONE,25,166
2026-05-27T23:39:43.660,1076632,0.76,-0.2,-0.28,3.6,-9.5,-7.9,8.5,5.1,-11.3,101.123,36.4,0,1,0,0,1,NONE,84,518
2026-05-27T23:39:43.728,1076685,0.89,-0.19,-0.4,18.1,1.9,-9.7,8.2,5.3,-12.5,101.125,36.41,0,1,0,0,1,NONE,94,569
2026-05-27T23:39:43.775,1076732,0.97,-0.35,-0.33,33.6,-8.7,-7.8,8.4,6.3,-12.9,101.123,36.41,0,1,0,0,1,NONE,57,307
2026-05-27T23:39:43.827,1076785,0.86,-0.23,-0.28,34.6,-11.9,-3.2,8.6,6.4,-12.7,101.125,36.4,0,1,0,0,1,NONE,48,284
2026-05-27T23:39:43.878,1076836,0.83,-0.34,-0.25,20.6,1.5,-3.6,8.5,6.0,-14.3,101.126,36.4,0,1,0,0,1,NONE,39,219
2026-05-27T23:39:43.917,1076884,0.94,-0.26,-0.25,10.6,9.7,0.1,8.9,6.8,-14.6,101.127,36.4,0,1,0,0,1,NONE,30,193
2026-05-27T23:39:43.974,1076932,0.9,-0.18,-0.27,4.9,8.6,-3.3,9.0,6.9,-14.3,101.127,36.41,0,1,0,0,1,NONE,23,146
2026-05-27T23:39:44.017,1076985,0.87,-0.24,-0.27,24.5,7.1,0.0,9.0,7.4,-14.5,101.126,36.41,0,1,0,0,1,NONE,72,453
2026-05-27T23:39:44.078,1077034,0.93,-0.28,-0.2,27.6,7.8,1.6,8.9,7.3,-14.6,101.128,36.41,0,1,0,0,1,NONE,101,650
2026-05-27T23:39:44.125,1077082,0.93,-0.28,-0.26,37.8,4.6,10.4,8.2,7.7,-15.9,101.123,36.4,0,1,0,0,1,NONE,144,810
2026-05-27T23:39:44.175,1077134,0.96,-0.33,-0.25,30.6,3.7,9.5,8.3,8.0,-15.3,101.124,36.4,0,1,0,0,1,NONE,85,556
2026-05-27T23:39:44.223,1077186,1.0,-0.25,-0.29,44.6,-7.4,8.0,8.6,8.7,-16.7,101.127,36.41,0,1,0,0,1,NONE,69,502
2026-05-27T23:39:44.274,1077232,0.86,-0.27,-0.37,42.9,-7.4,3.4,7.9,9.8,-18.5,101.126,36.4,0,1,0,0,1,NONE,108,550
2026-05-27T23:39:44.320,1077284,0.8,-0.23,-0.39,37.9,-8.2,-2.0,7.9,10.3,-19.1,101.125,36.4,0,1,0,0,1,NONE,45,293
2026-05-27T23:39:44.369,1077332,0.95,-0.24,-0.35,21.5,-2.2,-5.6,7.7,11.4,-20.0,101.121,36.4,0,1,0,0,1,NONE,52,299
2026-05-27T23:39:44.429,1077384,0.99,-0.13,-0.37,21.4,-2.3,-3.7,7.5,11.7,-20.1,101.125,36.4,0,1,0,0,1,NONE,44,285
2026-05-27T23:39:44.479,1077436,0.89,-0.18,-0.17,15.9,-9.3,-4.0,8.0,12.2,-20.3,101.121,36.4,0,1,0,0,1,NONE,397,1988
2026-05-27T23:39:44.527,1077484,0.92,-0.13,-0.31,11.5,6.5,-2.1,7.5,12.2,-20.9,101.129,36.41,0,1,0,0,1,NONE,249,1694
2026-05-27T23:39:44.573,1077532,0.92,-0.08,-0.22,30.0,1.6,0.4,7.3,12.7,-20.8,101.124,36.4,0,1,0,0,1,NONE,598,2776
2026-05-27T23:39:44.622,1077584,0.92,-0.12,-0.19,36.1,0.6,-4.7,7.8,13.1,-20.9,101.123,36.4,0,1,0,0,1,NONE,630,3032
2026-05-27T23:39:44.672,1077632,0.91,-0.22,-0.18,31.1,3.7,-11.9,7.6,14.3,-21.5,101.122,36.4,0,1,0,0,1,NONE,96,445
2026-05-27T23:39:44.717,1077684,0.91,-0.19,-0.18,26.7,0.9,-14.1,8.2,15.0,-23.0,101.129,36.41,0,1,0,0,1,NONE,78,476
2026-05-27T23:39:44.775,1077734,0.95,-0.24,-0.19,20.1,-0.3,-13.4,7.9,16.0,-22.7,101.126,36.4,0,1,0,0,1,NONE,413,2697
2026-05-27T23:39:44.817,1077783,0.92,-0.27,-0.22,9.2,-7.9,-14.9,7.7,16.7,-22.0,101.124,36.4,0,1,0,0,1,NONE,123,738
2026-05-27T23:39:44.877,1077834,1.07,-0.15,-0.48,40.6,10.2,-2.0,8.4,17.0,-23.7,101.128,36.41,0,1,0,0,1,NONE,117,566
2026-05-27T23:39:44.929,1077886,0.87,-0.12,-0.31,51.5,0.4,8.0,7.9,17.6,-23.8,101.122,36.4,0,1,0,0,1,NONE,360,1621
2026-05-27T23:39:44.975,1077932,0.99,-0.2,-0.4,28.0,13.9,6.4,8.2,18.3,-22.8,101.125,36.4,0,1,0,0,1,NONE,401,1887
2026-05-27T23:39:45.028,1077984,0.85,-0.21,-0.34,7.1,-2.1,4.2,8.4,19.0,-23.6,101.121,36.4,0,1,0,0,1,NONE,287,1551
2026-05-27T23:39:45.077,1078032,0.92,-0.31,-0.41,-7.5,20.9,-1.2,9.0,18.7,-23.8,101.127,36.4,0,1,0,0,1,NONE,143,824
2026-05-27T23:39:45.125,1078084,0.92,-0.16,-0.4,-5.7,7.3,0.5,8.3,18.0,-23.5,101.127,36.41,0,1,0,0,1,NONE,88,636
2026-05-27T23:39:45.170,1078136,0.86,-0.21,-0.35,0.5,5.7,0.9,9.0,17.9,-23.6,101.122,36.4,0,1,0,0,1,NONE,83,560
2026-05-27T23:39:45.218,1078184,0.87,-0.24,-0.35,5.9,4.5,5.2,9.2,18.4,-22.3,101.126,36.4,0,1,0,0,1,NONE,51,279
2026-05-27T23:39:45.264,1078232,0.86,-0.33,-0.4,-0.5,9.0,5.6,9.0,17.8,-21.4,101.125,36.4,0,1,0,0,1,NONE,76,188
2026-05-27T23:39:45.327,1078284,0.84,-0.36,-0.3,-8.1,5.4,10.7,9.6,17.7,-22.1,101.125,36.4,0,0,0,0,0,NONE,23,133
2026-05-27T23:39:45.378,1078332,0.95,-0.26,-0.26,-3.5,8.9,12.2,9.3,17.6,-21.4,101.125,36.4,0,0,0,0,0,NONE,29,124
2026-05-27T23:39:45.424,1078384,0.94,-0.3,-0.31,-17.6,-2.8,16.1,9.2,17.4,-21.2,101.12,36.39,0,1,0,0,1,NONE,34,137
2026-05-27T23:39:45.475,1078434,0.96,-0.25,-0.22,-9.5,-10.8,18.3,8.6,17.1,-20.6,101.122,36.4,0,1,0,0,1,NONE,160,649
2026-05-27T23:39:45.523,1078483,0.97,-0.38,-0.21,-3.5,-7.8,21.4,8.4,16.5,-21.6,101.123,36.4,0,0,0,0,0,NONE,172,758
2026-05-27T23:39:45.567,1078534,0.83,-0.14,-0.3,-41.5,-3.5,10.1,8.0,15.8,-21.7,101.124,36.4,0,0,0,0,0,NONE,129,563
2026-05-27T23:39:45.628,1078586,0.95,-0.01,-0.39,-41.7,-0.9,7.6,8.1,14.8,-20.5,101.125,36.4,0,1,0,0,1,NONE,64,346
2026-05-27T23:39:45.670,1078632,1.08,-0.01,-0.36,-30.2,-4.9,4.5,8.2,13.6,-20.5,101.125,36.4,0,1,0,0,1,NONE,46,288
2026-05-27T23:39:45.728,1078686,0.94,-0.12,-0.31,-25.7,9.9,14.7,8.1,13.2,-20.1,101.125,36.4,0,1,0,0,1,NONE,171,877
2026-05-27T23:39:45.776,1078732,0.93,-0.02,-0.17,-20.5,10.3,18.6,7.6,12.5,-19.0,101.128,36.4,0,1,0,0,1,NONE,126,672
2026-05-27T23:39:45.824,1078785,0.89,-0.02,-0.23,-24.5,17.5,4.5,8.1,11.6,-19.1,101.123,36.4,0,0,0,0,0,NONE,102,636
2026-05-27T23:39:45.876,1078835,0.9,-0.11,-0.29,-12.3,13.9,0.3,7.8,11.5,-17.8,101.127,36.4,0,0,0,0,0,NONE,76,499
2026-05-27T23:39:45.924,1078884,0.94,-0.11,-0.28,-11.6,13.5,-5.4,8.7,11.4,-15.7,101.126,36.4,0,1,0,0,1,NONE,89,556
2026-05-27T23:39:45.971,1078932,0.91,-0.11,-0.26,-4.3,0.0,-7.8,8.6,9.9,-16.2,101.124,36.4,0,1,0,0,1,NONE,67,363
2026-05-27T23:39:46.024,1078985,0.96,-0.08,-0.25,6.5,1.6,-10.3,8.9,11.5,-17.2,101.127,36.4,0,1,0,0,1,NONE,286,1322
2026-05-27T23:39:46.079,1079034,1.04,-0.11,-0.24,16.8,-0.1,-11.4,9.0,11.7,-16.2,101.127,36.4,0,1,0,0,1,NONE,236,1370
2026-05-27T23:39:46.125,1079082,0.97,-0.15,-0.22,24.2,1.1,-14.9,9.6,12.0,-16.6,101.123,36.4,0,1,0,0,1,NONE,130,758
2026-05-27T23:39:46.178,1079134,0.91,-0.16,-0.28,26.9,-4.5,-15.2,10.3,13.3,-17.3,101.127,36.4,0,1,0,0,1,NONE,116,759
2026-05-27T23:39:46.228,1079186,1.06,-0.28,-0.28,32.8,2.0,-14.8,9.9,13.9,-18.7,101.124,36.4,0,1,0,0,1,NONE,104,623
2026-05-27T23:39:46.274,1079232,0.9,-0.21,-0.55,27.7,-3.5,-7.4,10.6,15.0,-21.5,101.124,36.4,0,1,0,0,1,NONE,56,378
2026-05-27T23:39:46.327,1079283,0.8,-0.23,-0.36,35.1,1.6,-5.2,10.6,15.0,-21.5,101.129,36.4,0,1,0,0,1,NONE,126,590
2026-05-27T23:39:46.370,1079332,0.85,-0.24,-0.34,17.3,-2.2,-6.7,11.4,18.0,-20.3,101.125,36.4,0,1,0,0,1,NONE,114,785
2026-05-27T23:39:46.428,1079384,0.92,-0.31,-0.4,25.7,-1.5,-10.8,11.7,18.4,-20.6,101.125,36.39,0,1,0,0,1,NONE,75,311
2026-05-27T23:39:46.478,1079436,0.97,-0.28,-0.34,35.6,-10.6,-9.9,11.5,19.5,-21.6,101.125,36.4,0,1,0,0,1,NONE,66,355
2026-05-27T23:39:46.527,1079484,0.83,-0.24,-0.28,38.8,-8.1,-13.0,11.3,20.5,-23.6,101.125,36.4,0,1,0,0,1,NONE,64,359
2026-05-27T23:39:46.574,1079532,0.85,-0.32,-0.32,31.7,0.7,-9.8,11.4,21.0,-22.3,101.124,36.4,0,1,0,0,1,NONE,73,572
2026-05-27T23:39:46.622,1079584,0.88,-0.24,-0.31,40.6,-3.7,-6.3,11.3,22.4,-22.9,101.123,36.4,0,1,0,0,1,NONE,92,553
2026-05-27T23:39:46.674,1079634,0.9,-0.24,-0.29,39.8,-1.8,-4.6,11.7,23.5,-23.4,101.125,36.4,0,1,0,0,1,NONE,128,684
2026-05-27T23:39:46.720,1079682,0.91,-0.28,-0.28,40.9,-0.9,-4.0,10.5,25.0,-24.5,101.126,36.4,0,1,0,1,2,NONE,69,346
2026-05-27T23:39:46.770,1079734,0.94,-0.3,-0.23,36.1,-3.5,0.2,10.8,25.6,-24.4,101.124,36.4,0,1,0,1,2,NONE,41,162
2026-05-27T23:39:46.830,1079786,0.97,-0.31,-0.25,28.9,-13.5,3.5,10.6,26.1,-25.3,101.126,36.4,0,1,0,0,1,NONE,28,172
2026-05-27T23:39:46.864,1079832,1.05,-0.27,-0.23,23.4,-28.0,8.5,9.6,26.8,-25.3,101.124,36.39,0,1,0,0,1,NONE,30,148
2026-05-27T23:39:46.928,1079884,0.97,-0.16,-0.13,33.8,-36.4,15.3,8.1,26.6,-27.3,101.124,36.39,0,1,0,0,1,NONE,35,157
2026-05-27T23:39:46.975,1079932,0.85,-0.33,-0.48,35.3,-11.8,1.3,7.5,27.6,-27.8,101.126,36.4,0,1,0,0,1,NONE,27,157
2026-05-27T23:39:47.028,1079985,0.95,-0.3,-0.34,-6.5,-10.1,2.2,7.0,27.1,-29.3,101.12,36.39,0,1,0,0,1,NONE,44,293
2026-05-27T23:39:47.071,1080035,0.96,-0.15,-0.26,14.8,-12.8,5.7,6.5,27.0,-28.1,101.124,36.4,0,1,0,0,1,NONE,46,228
2026-05-27T23:39:47.122,1080084,0.9,-0.13,-0.15,10.9,-18.1,10.7,6.2,27.2,-29.4,101.126,36.4,0,1,0,0,1,NONE,43,303
2026-05-27T23:39:47.167,1080132,0.99,-0.16,-0.16,-9.5,-6.7,8.3,4.9,26.9,-30.0,101.127,36.4,0,1,0,0,1,NONE,48,280
2026-05-27T23:39:47.225,1080184,0.88,-0.1,-0.17,-7.2,-7.4,10.7,4.8,26.1,-30.3,101.122,36.4,0,1,0,1,2,NONE,52,370
2026-05-27T23:39:47.263,1080234,0.89,-0.11,-0.16,-1.9,1.3,7.0,4.5,25.7,-30.2,101.123,36.4,0,1,0,1,2,NONE,129,859
2026-05-27T23:39:47.319,1080282,0.94,-0.09,-0.19,-11.5,8.3,3.9,4.3,24.8,-29.7,101.124,36.4,0,1,0,0,1,NONE,103,643
2026-05-27T23:39:47.377,1080334,0.92,-0.11,-0.12,-15.9,8.6,1.2,4.1,24.3,-28.8,101.122,36.4,0,1,0,0,1,NONE,104,685
2026-05-27T23:39:47.432,1080386,0.94,-0.08,-0.12,-19.2,13.1,1.7,5.0,23.6,-29.1,101.125,36.4,0,1,0,0,1,NONE,80,492
2026-05-27T23:39:47.472,1080432,0.96,-0.2,-0.12,-40.3,20.0,-4.2,4.9,22.2,-28.6,101.124,36.4,0,1,0,0,1,NONE,146,858
2026-05-27T23:39:47.528,1080484,1.0,-0.07,-0.19,-37.4,19.0,-4.0,5.9,20.9,-28.1,101.127,36.4,0,1,0,0,1,NONE,139,756
2026-05-27T23:39:47.573,1080532,1.01,-0.06,-0.15,-30.9,11.7,-3.1,6.2,20.7,-28.2,101.126,36.39,0,1,0,0,1,NONE,191,1134
2026-05-27T23:39:47.624,1080584,1.12,-0.12,-0.3,-34.2,29.0,-1.5,6.8,19.5,-27.3,101.123,36.4,0,1,0,0,1,NONE,183,1120
2026-05-27T23:39:47.668,1080636,0.89,-0.14,-0.26,-13.0,-1.3,-2.6,6.5,19.1,-26.8,101.124,36.39,0,1,0,0,1,NONE,101,725
2026-05-27T23:39:47.713,1080684,0.86,-0.21,-0.3,-13.3,13.3,-3.0,7.0,18.3,-25.6,101.124,36.4,0,1,0,1,2,NONE,74,390
2026-05-27T23:39:47.776,1080732,0.91,-0.27,-0.32,-22.6,10.4,-3.5,7.8,18.2,-25.2,101.125,36.39,0,1,0,1,2,NONE,48,236
2026-05-27T23:39:47.824,1080784,0.91,-0.32,-0.28,-9.4,8.8,-3.3,7.8,17.5,-24.9,101.124,36.39,0,1,0,0,1,NONE,54,287
2026-05-27T23:39:47.876,1080834,0.86,-0.39,-0.22,-13.1,2.3,-1.1,7.5,17.3,-23.9,101.123,36.39,0,1,0,0,1,NONE,48,254
2026-05-27T23:39:47.926,1080882,0.85,-0.34,-0.16,-14.8,9.9,-0.6,7.7,16.8,-24.2,101.125,36.4,0,1,0,1,2,NONE,78,397
2026-05-27T23:39:47.974,1080934,0.9,-0.35,-0.22,-4.3,24.4,-4.5,8.3,16.4,-23.1,101.125,36.39,0,1,0,1,2,NONE,66,449
2026-05-27T23:39:48.021,1080986,0.94,-0.3,-0.22,-10.9,27.6,-4.1,8.6,15.9,-23.5,101.12,36.39,0,1,0,0,1,NONE,89,531
2026-05-27T23:39:48.065,1081032,0.85,-0.28,-0.26,-3.7,21.7,-4.5,9.7,16.9,-23.3,101.122,36.39,0,1,0,0,1,NONE,159,1008
2026-05-27T23:39:48.129,1081084,0.87,-0.26,-0.32,1.5,29.0,-0.4,10.3,16.4,-21.1,101.125,36.39,0,1,0,0,1,NONE,162,919
2026-05-27T23:39:48.165,1081132,0.83,-0.33,-0.23,4.2,33.4,3.2,10.4,16.1,-20.8,101.122,36.39,0,1,0,0,1,NONE,139,845
2026-05-27T23:39:48.230,1081184,0.96,-0.35,-0.28,23.0,10.6,9.9,10.3,16.4,-19.5,101.124,36.39,0,1,0,0,1,NONE,140,920
2026-05-27T23:39:48.279,1081235,0.97,-0.31,-0.44,39.0,6.0,22.0,10.5,16.6,-19.3,101.126,36.39,0,1,0,0,1,NONE,156,870
2026-05-27T23:39:48.324,1081284,0.92,-0.35,0.02,16.4,-1.8,14.5,10.2,16.3,-20.9,101.122,36.39,0,1,0,0,1,NONE,131,848
2026-05-27T23:39:48.369,1081332,0.98,-0.18,-0.15,-41.1,23.5,3.7,10.4,16.0,-19.5,101.128,36.39,0,1,0,0,1,NONE,132,845
2026-05-27T23:39:48.428,1081384,0.87,-0.44,-0.39,-30.9,25.4,-5.6,10.9,15.5,-20.0,101.12,36.39,0,1,0,0,1,NONE,105,550
2026-05-27T23:39:48.477,1081434,0.97,-0.2,-0.32,-22.1,3.7,-5.2,11.2,15.7,-18.2,101.124,36.39,0,1,0,0,1,NONE,73,446
2026-05-27T23:39:48.519,1081483,0.85,-0.35,-0.26,-10.9,-3.9,0.2,11.6,15.8,-18.2,101.124,36.4,0,1,0,0,1,NONE,89,473
2026-05-27T23:39:48.577,1081534,1.0,-0.4,-0.41,-10.3,-2.3,-0.4,11.6,15.1,-17.3,101.123,36.39,0,1,0,0,1,NONE,112,566
2026-05-27T23:39:48.627,1081586,0.92,-0.3,-0.39,-2.8,-11.2,6.0,11.1,14.8,-18.1,101.127,36.39,0,1,0,0,1,NONE,115,589
2026-05-27T23:39:48.675,1081632,0.79,-0.34,-0.28,0.4,-22.0,11.4,10.9,15.2,-18.5,101.124,36.4,0,1,0,0,1,NONE,100,623
2026-05-27T23:39:48.724,1081684,0.93,-0.22,-0.34,18.1,-15.9,14.8,10.3,14.8,-18.6,101.129,36.4,0,1,0,0,1,NONE,49,304
2026-05-27T23:39:48.772,1081732,0.92,-0.25,-0.22,-4.3,-21.9,9.2,9.4,14.2,-19.5,101.126,36.39,0,1,0,0,1,NONE,81,489
2026-05-27T23:39:48.816,1081784,0.91,-0.34,-0.22,-21.4,-8.8,12.8,8.8,14.7,-18.8,101.123,36.39,0,1,0,0,1,NONE,63,437
2026-05-27T23:39:48.879,1081836,0.86,-0.24,-0.21,-12.3,-3.8,15.0,9.1,13.2,-19.9,101.126,36.39,0,1,0,0,1,NONE,42,262
2026-05-27T23:39:48.926,1081884,0.9,-0.26,-0.12,-13.1,4.8,16.5,7.8,12.6,-19.4,101.123,36.39,0,1,0,0,1,NONE,72,492
2026-05-27T23:39:48.973,1081932,0.88,-0.16,-0.2,-14.6,9.8,13.0,8.0,12.0,-19.5,101.127,36.39,0,1,0,0,1,NONE,111,638
2026-05-27T23:39:49.020,1081984,0.91,-0.19,-0.15,-10.3,10.4,7.1,7.9,11.1,-18.0,101.127,36.39,0,1,0,0,1,NONE,137,805
2026-05-27T23:39:49.073,1082034,0.93,-0.21,-0.1,-17.1,11.4,2.8,7.8,10.8,-18.6,101.129,36.39,0,1,0,0,1,NONE,121,789
2026-05-27T23:39:49.113,1082083,0.97,-0.21,-0.21,-0.2,11.2,3.4,8.1,10.3,-17.7,101.128,36.39,0,1,0,0,1,NONE,62,406
2026-05-27T23:39:49.177,1082134,0.96,-0.28,-0.09,-17.9,0.1,4.0,7.9,10.1,-17.4,101.126,36.39,0,1,0,0,1,NONE,126,619
2026-05-27T23:39:49.225,1082186,1.06,-0.22,-0.09,-19.8,-1.0,-2.4,7.8,9.7,-16.0,101.121,36.38,0,1,0,0,1,NONE,121,654
2026-05-27T23:39:49.272,1082232,1.11,-0.11,-0.49,9.8,15.4,5.4,8.1,9.5,-15.9,101.124,36.39,0,1,0,0,1,NONE,167,974
2026-05-27T23:39:49.328,1082284,0.9,-0.27,-0.32,18.3,-4.9,-3.4,8.2,9.6,-15.0,101.123,36.38,0,1,0,0,1,NONE,139,932
2026-05-27T23:39:49.370,1082332,0.79,-0.27,-0.26,-16.2,2.0,-9.4,8.1,9.4,-16.5,101.126,36.38,0,1,0,0,1,NONE,236,1129
2026-05-27T23:39:49.420,1082384,0.9,-0.26,-0.35,-15.1,14.8,-10.7,8.5,10.1,-17.3,101.123,36.38,0,1,0,0,1,NONE,92,497
2026-05-27T23:39:49.480,1082435,0.93,-0.29,-0.25,10.7,1.8,-5.1,9.1,10.7,-15.4,101.124,36.39,0,1,0,0,1,NONE,270,1614
2026-05-27T23:39:49.527,1082484,0.93,-0.31,-0.21,24.6,1.0,-1.4,9.3,10.3,-15.9,101.126,36.39,0,1,0,0,1,NONE,220,1242
2026-05-27T23:39:49.575,1082532,0.91,-0.32,-0.24,23.3,3.6,-6.9,9.3,11.1,-16.4,101.123,36.38,0,1,0,0,1,NONE,98,541
2026-05-27T23:39:49.627,1082584,0.84,-0.33,-0.22,7.1,2.0,-7.4,9.8,11.0,-16.7,101.125,36.39,0,1,0,0,1,NONE,47,278
2026-05-27T23:39:49.671,1082634,0.9,-0.34,-0.22,9.2,10.3,-4.9,9.9,11.5,-16.5,101.118,36.38,0,1,0,0,1,NONE,47,235
2026-05-27T23:39:49.722,1082682,0.87,-0.28,-0.23,8.9,17.0,-1.3,9.7,11.4,-18.1,101.124,36.38,0,1,0,0,1,NONE,23,116
2026-05-27T23:39:49.767,1082734,0.9,-0.28,-0.25,10.6,24.2,-1.2,10.1,12.2,-16.0,101.126,36.38,0,1,0,0,1,NONE,48,248
2026-05-27T23:39:49.819,1082786,0.88,-0.36,-0.26,8.2,21.3,-0.3,10.5,12.7,-15.9,101.126,36.39,0,1,0,0,1,NONE,78,588
2026-05-27T23:39:49.868,1082832,0.87,-0.37,-0.24,6.3,24.3,3.8,10.7,12.6,-15.4,101.123,36.39,0,1,0,0,1,NONE,113,630
2026-05-27T23:39:49.928,1082884,0.94,-0.38,-0.25,3.1,18.9,5.1,11.0,12.3,-14.3,101.126,36.38,0,1,0,0,1,NONE,107,629
2026-05-27T23:39:49.975,1082932,0.92,-0.36,-0.28,4.0,14.1,6.2,10.9,12.1,-13.7,101.125,36.39,0,1,0,0,1,NONE,112,518
2026-05-27T23:39:50.027,1082984,0.91,-0.33,-0.24,4.2,5.3,6.5,11.7,12.0,-13.4,101.126,36.38,0,1,0,0,1,NONE,91,625
2026-05-27T23:39:50.071,1083036,0.91,-0.37,-0.24,-4.5,0.6,7.9,10.9,12.0,-15.4,101.126,36.38,0,1,0,0,1,NONE,144,741
2026-05-27T23:39:50.123,1083084,0.96,-0.33,-0.28,-2.4,-2.0,8.4,10.5,11.6,-13.5,101.124,36.38,0,1,0,0,1,NONE,113,588
2026-05-27T23:39:50.174,1083132,0.82,-0.3,-0.22,-4.4,-7.6,7.4,10.5,11.2,-13.0,101.128,36.38,0,1,0,0,1,NONE,131,714
2026-05-27T23:39:50.217,1083184,0.88,-0.23,-0.37,10.2,2.0,2.4,10.8,11.1,-15.1,101.125,36.39,0,1,0,0,1,NONE,76,532
2026-05-27T23:39:50.279,1083234,0.92,-0.36,-0.22,0.5,-9.8,-10.1,10.4,11.5,-15.0,101.125,36.38,0,1,0,0,1,NONE,189,989
2026-05-27T23:39:50.322,1083282,0.99,-0.26,-0.51,-16.1,12.6,-4.8,10.9,10.9,-14.4,101.127,36.39,0,1,0,0,1,NONE,204,1136
2026-05-27T23:39:50.377,1083334,0.89,-0.25,-0.26,30.0,-8.9,8.9,10.7,11.0,-15.5,101.128,36.39,0,1,0,0,1,NONE,80,399
2026-05-27T23:39:50.423,1083386,0.88,-0.26,-0.16,12.1,-5.5,10.1,10.4,11.5,-15.8,101.126,36.38,0,1,0,0,1,NONE,267,1141
2026-05-27T23:39:50.475,1083432,0.88,-0.21,-0.28,-12.1,4.9,4.5,10.1,11.2,-15.8,101.126,36.38,0,1,0,0,1,NONE,121,796
2026-05-27T23:39:50.524,1083484,0.93,-0.17,-0.29,20.0,3.4,6.5,9.6,10.9,-15.3,101.125,36.38,0,1,0,0,1,NONE,158,1075
2026-05-27T23:39:50.572,1083532,0.9,-0.22,-0.17,25.8,2.8,6.8,9.4,11.2,-15.6,101.12,36.39,0,1,0,0,1,NONE,131,844
2026-05-27T23:39:50.623,1083584,0.9,-0.2,-0.23,26.2,8.9,2.3,9.4,11.6,-16.5,101.124,36.38,0,1,0,0,1,NONE,122,896
2026-05-27T23:39:50.679,1083636,0.9,-0.29,-0.21,18.9,6.6,1.7,9.9,11.5,-16.3,101.127,36.39,0,1,0,0,1,NONE,143,952
2026-05-27T23:39:50.727,1083684,0.93,-0.3,-0.21,-3.7,8.3,-1.5,9.8,12.0,-16.4,101.126,36.39,0,1,0,0,1,NONE,186,1300
2026-05-27T23:39:50.775,1083732,0.92,-0.27,-0.15,-3.2,-1.0,0.6,10.1,11.6,-15.3,101.125,36.39,0,1,0,0,1,NONE,110,861
2026-05-27T23:39:50.823,1083784,1.22,-0.16,-0.47,-3.3,38.5,9.2,10.2,11.4,-16.5,101.126,36.39,0,1,0,0,1,NONE,123,935
2026-05-27T23:39:50.872,1083834,0.87,-0.25,-0.39,3.5,-7.8,1.6,10.3,11.0,-16.2,101.123,36.38,0,1,0,0,1,NONE,118,782
2026-05-27T23:39:50.928,1083882,0.81,-0.21,-0.47,-8.9,23.3,-3.9,10.4,11.4,-15.1,101.125,36.39,0,1,0,0,1,NONE,191,1142
2026-05-27T23:39:50.967,1083934,0.81,-0.24,-0.39,-11.8,17.8,-2.0,10.9,11.2,-15.3,101.122,36.38,0,1,0,0,1,NONE,131,770
2026-05-27T23:39:51.019,1083986,0.89,-0.27,-0.44,0.4,13.5,-4.7,11.3,10.6,-13.8,101.123,36.38,0,1,0,0,1,NONE,121,723
2026-05-27T23:39:51.067,1084032,0.89,-0.26,-0.4,17.5,4.5,-0.7,11.6,11.4,-13.5,101.126,36.39,0,1,0,0,1,NONE,171,1063
2026-05-27T23:39:51.128,1084084,0.92,-0.32,-0.41,24.7,-0.2,-6.6,11.6,11.7,-14.9,101.126,36.38,0,1,0,0,1,NONE,172,1279
2026-05-27T23:39:51.176,1084132,0.83,-0.28,-0.34,13.7,-7.3,-7.3,11.6,12.4,-14.4,101.125,36.39,0,1,0,0,1,NONE,80,499
2026-05-27T23:39:51.226,1084184,0.88,-0.32,-0.32,14.4,-2.4,-6.5,11.3,12.9,-15.5,101.127,36.38,0,1,0,0,1,NONE,168,1553
2026-05-27T23:39:51.272,1084236,0.88,-0.3,-0.34,4.2,-1.0,-3.5,11.6,12.6,-15.5,101.123,36.38,0,1,0,0,1,NONE,203,1452
2026-05-27T23:39:51.321,1084284,0.86,-0.35,-0.32,-1.1,0.2,-0.4,11.4,13.5,-15.7,101.127,36.38,0,1,0,0,1,NONE,96,669
2026-05-27T23:39:51.369,1084332,0.88,-0.3,-0.28,-4.7,-2.6,4.3,11.2,13.3,-16.1,101.126,36.38,0,1,0,0,1,NONE,58,335
2026-05-27T23:39:51.419,1084384,0.88,-0.37,-0.25,-14.0,-1.0,8.2,11.7,13.1,-15.2,101.124,36.38,0,1,0,0,1,NONE,51,286
2026-05-27T23:39:51.470,1084434,0.96,-0.31,-0.27,5.7,-4.6,15.3,10.5,12.5,-16.0,101.125,36.38,0,1,0,0,1,NONE,97,568
2026-05-27T23:39:51.528,1084483,0.89,-0.24,-0.26,11.2,-14.8,8.1,10.8,12.6,-14.8,101.125,36.39,0,1,0,0,1,NONE,74,414
2026-05-27T23:39:51.578,1084534,0.73,-0.26,-0.23,30.9,-20.9,5.4,9.7,11.9,-17.2,101.124,36.38,0,1,0,0,1,NONE,82,372
2026-05-27T23:39:51.629,1084586,1.01,-0.49,-0.43,20.6,6.8,-7.0,9.9,12.8,-17.6,101.121,36.39,0,1,0,0,1,NONE,125,811
2026-05-27T23:39:51.675,1084632,0.98,-0.23,-0.52,-20.0,-0.5,-10.4,9.6,13.4,-17.5,101.126,36.38,0,1,0,0,1,NONE,102,628
2026-05-27T23:39:51.727,1084684,0.84,-0.24,-0.27,8.8,-8.9,-2.9,9.9,12.7,-17.5,101.124,36.38,0,1,0,0,1,NONE,74,369
2026-05-27T23:39:51.775,1084732,0.98,-0.25,-0.21,7.9,-3.5,-2.6,9.8,13.6,-18.0,101.126,36.38,0,1,0,0,1,NONE,91,571
2026-05-27T23:39:51.825,1084784,0.95,-0.17,-0.3,-14.2,-4.1,-1.4,9.6,13.6,-17.5,101.128,36.39,0,1,0,0,1,NONE,70,427
2026-05-27T23:39:51.868,1084835,0.86,-0.23,-0.22,3.7,-1.3,2.4,9.5,13.2,-18.9,101.126,36.38,0,1,0,0,1,NONE,36,183
2026-05-27T23:39:51.914,1084884,0.91,-0.21,-0.22,6.7,1.7,-1.6,8.9,13.0,-17.5,101.125,36.39,0,1,0,0,1,NONE,42,242
2026-05-27T23:39:51.962,1084932,0.87,-0.25,-0.22,6.3,0.9,-6.3,9.3,13.7,-17.7,101.125,36.38,0,1,0,0,1,NONE,30,180
2026-05-27T23:39:52.026,1084984,0.92,-0.29,-0.2,4.2,6.4,-7.4,9.4,14.3,-18.5,101.128,36.38,0,1,0,0,1,NONE,44,253
2026-05-27T23:39:52.074,1085034,0.94,-0.25,-0.19,13.4,1.0,-4.6,9.6,14.5,-18.8,101.127,36.39,0,1,0,0,1,NONE,47,301
2026-05-27T23:39:52.126,1085082,0.93,-0.35,-0.13,13.1,-0.4,-4.2,9.8,14.2,-18.9,101.123,36.38,0,1,0,0,1,NONE,52,341
2026-05-27T23:39:52.170,1085134,0.94,-0.29,-0.18,11.5,-1.7,-0.4,10.0,14.0,-18.7,101.124,36.38,0,1,0,0,1,NONE,79,413
2026-05-27T23:39:52.218,1085186,1.03,-0.22,-0.29,33.0,11.8,9.5,10.1,14.4,-19.0,101.123,36.39,0,1,0,0,1,NONE,66,325
2026-05-27T23:39:52.271,1085232,0.89,-0.23,-0.25,51.9,1.8,7.8,9.9,15.3,-17.7,101.125,36.39,0,1,0,0,1,NONE,84,541
2026-05-27T23:39:52.316,1085286,0.94,-0.31,-0.44,30.3,13.7,-0.4,10.1,15.9,-19.5,101.127,36.38,0,1,0,0,1,NONE,49,245
2026-05-27T23:39:52.364,1085332,0.82,-0.29,-0.34,46.3,7.1,-5.1,10.0,16.7,-20.4,101.126,36.38,0,1,0,0,1,NONE,41,216
2026-05-27T23:39:52.429,1085384,0.88,-0.28,-0.46,44.4,17.9,3.3,10.2,17.3,-19.7,101.122,36.38,0,1,0,0,1,NONE,33,203
2026-05-27T23:39:52.479,1085436,0.94,-0.28,-0.35,78.8,-17.3,7.7,10.8,18.9,-20.6,101.123,36.38,0,1,0,0,1,NONE,37,175
2026-05-27T23:39:52.527,1085484,0.81,-0.25,-0.34,32.6,-8.4,3.2,9.9,19.0,-21.7,101.124,36.38,0,1,0,0,1,NONE,39,299
2026-05-27T23:39:52.575,1085532,0.94,-0.2,-0.33,37.1,8.7,3.4,10.0,20.2,-22.2,101.123,36.39,0,1,0,0,1,NONE,93,673
2026-05-27T23:39:52.622,1085584,0.9,-0.23,-0.39,29.1,-0.9,1.6,9.5,20.9,-21.1,101.122,36.38,0,1,0,0,1,NONE,94,691
2026-05-27T23:39:52.674,1085634,0.89,-0.24,-0.34,26.0,-3.9,2.3,8.8,21.1,-21.9,101.122,36.39,0,1,0,0,1,NONE,104,890
2026-05-27T23:39:52.722,1085682,0.9,-0.23,-0.33,14.9,1.6,2.4,8.9,21.2,-21.5,101.123,36.38,0,1,0,0,1,NONE,121,720
2026-05-27T23:39:52.770,1085734,0.96,-0.13,-0.33,13.1,-4.0,7.4,8.7,21.7,-22.2,101.128,36.39,0,1,0,0,1,NONE,88,541
2026-05-27T23:39:52.828,1085786,0.91,-0.1,-0.26,18.4,-9.3,9.8,8.7,21.9,-22.5,101.123,36.38,0,1,0,0,1,NONE,102,651
2026-05-27T23:39:52.876,1085832,0.96,-0.19,-0.29,18.9,-4.0,4.8,8.3,21.7,-23.0,101.127,36.38,0,1,0,0,1,NONE,233,1102
2026-05-27T23:39:52.927,1085884,0.96,-0.18,-0.23,7.2,-18.0,12.0,8.0,22.5,-22.3,101.124,36.38,0,1,0,0,1,NONE,377,1746
2026-05-27T23:39:52.973,1085932,0.92,-0.3,-0.2,-7.4,-15.4,18.6,8.2,22.4,-23.0,101.124,36.38,0,1,0,0,1,NONE,226,1251
2026-05-27T23:39:53.025,1085984,0.91,-0.09,-0.15,-11.7,-16.9,20.6,7.2,22.1,-22.4,101.125,36.38,0,1,0,0,1,NONE,265,1388
2026-05-27T23:39:53.083,1086036,0.91,-0.17,-0.13,-15.9,-12.3,21.5,6.4,21.2,-24.5,101.12,36.38,0,1,0,0,1,NONE,131,939
2026-05-27T23:39:53.116,1086084,1.04,-0.16,-0.26,-13.5,3.2,16.4,5.6,20.5,-24.2,101.125,36.38,0,1,0,0,1,NONE,53,304
2026-05-27T23:39:53.167,1086132,1.01,-0.19,-0.35,-51.1,6.7,-2.1,5.6,20.0,-23.6,101.12,36.38,0,1,0,0,1,NONE,62,420
2026-05-27T23:39:53.228,1086184,0.97,0.04,-0.25,-20.5,-6.6,5.5,5.9,18.6,-24.3,101.124,36.39,0,1,0,0,1,NONE,92,576
2026-05-27T23:39:53.277,1086234,0.87,-0.1,-0.34,2.6,5.1,10.3,5.7,18.3,-23.3,101.123,36.38,0,1,0,0,1,NONE,135,859
2026-05-27T23:39:53.325,1086283,0.93,-0.06,-0.23,5.8,5.0,5.7,5.0,18.2,-24.9,101.123,36.38,0,1,0,0,1,NONE,137,1022
2026-05-27T23:39:53.376,1086331,0.98,-0.08,-0.19,0.8,1.3,-2.9,5.0,18.2,-24.9,101.119,36.38,0,1,0,0,1,NONE,102,568
2026-05-27T23:39:53.420,1086383,0.95,-0.08,-0.22,-3.2,10.3,-9.0,5.5,18.3,-21.9,101.125,36.38,0,1,0,0,1,NONE,117,753
2026-05-27T23:39:53.478,1086434,0.95,-0.02,-0.22,13.5,5.1,-3.3,5.5,18.2,-23.1,101.125,36.38,0,1,0,0,1,NONE,67,441
2026-05-27T23:39:53.517,1086486,0.91,-0.09,-0.15,14.5,15.6,-3.4,5.6,18.4,-22.2,101.126,36.38,0,1,0,0,1,NONE,194,1140
2026-05-27T23:39:53.566,1086534,0.98,-0.1,-0.2,6.7,17.1,-7.3,6.3,18.5,-22.5,101.127,36.38,0,1,0,0,1,NONE,176,1121
2026-05-27T23:39:53.615,1086582,0.93,-0.09,-0.18,7.8,16.8,-5.7,6.4,19.1,-21.2,101.124,36.38,0,1,0,0,1,NONE,237,1113
2026-05-27T23:39:53.680,1086634,0.98,-0.04,-0.23,4.5,23.0,-5.8,6.4,18.9,-21.4,101.125,36.38,0,1,0,0,1,NONE,82,485
2026-05-27T23:39:53.726,1086686,0.91,-0.16,-0.17,-10.0,16.2,-10.9,7.9,19.4,-20.2,101.127,36.38,0,1,0,0,1,NONE,43,247
2026-05-27T23:39:53.774,1086732,0.9,-0.19,-0.15,1.8,13.8,-12.8,7.8,19.5,-20.4,101.123,36.38,0,1,0,0,1,NONE,57,296
2026-05-27T23:39:53.822,1086786,1.09,-0.11,-0.48,-11.1,19.2,-7.8,8.1,19.2,-19.7,101.124,36.38,0,1,0,0,1,NONE,95,479
2026-05-27T23:39:53.870,1086832,0.91,-0.19,-0.35,14.0,15.4,6.5,8.8,19.3,-18.6,101.125,36.38,0,1,0,0,1,NONE,83,417
2026-05-27T23:39:53.922,1086884,0.93,-0.15,-0.46,15.9,7.9,3.4,8.5,19.3,-18.3,101.125,36.38,0,1,0,0,1,NONE,182,748
2026-05-27T23:39:53.982,1086936,0.83,-0.25,-0.38,-6.2,5.1,1.5,7.6,19.0,-18.2,101.12,36.37,0,1,0,0,1,NONE,428,1762
2026-05-27T23:39:54.014,1086984,0.98,-0.19,-0.4,10.9,-0.9,-3.2,8.7,18.7,-18.9,101.126,36.38,0,1,0,0,1,NONE,331,1474
2026-05-27T23:39:54.069,1087032,0.97,-0.31,-0.32,16.8,-26.5,0.3,8.4,19.7,-20.5,101.123,36.38,0,1,0,0,1,NONE,238,1067
2026-05-27T23:39:54.127,1087084,0.84,-0.22,-0.26,-7.5,-41.1,6.2,7.3,18.7,-19.6,101.124,36.38,0,1,0,0,1,NONE,163,799
2026-05-27T23:39:54.177,1087134,0.9,-0.19,-0.2,9.5,-26.9,5.6,6.5,19.4,-21.3,101.127,36.38,0,1,0,0,1,NONE,98,518
2026-05-27T23:39:54.226,1087183,0.89,-0.19,-0.2,7.3,-12.6,5.3,6.1,18.9,-21.2,101.127,36.38,0,1,0,0,1,NONE,209,905
2026-05-27T23:39:54.276,1087234,0.89,-0.23,-0.17,16.5,3.1,1.8,5.9,18.6,-20.9,101.128,36.38,0,1,0,0,1,NONE,240,932
2026-05-27T23:39:54.324,1087286,0.88,-0.23,-0.2,13.7,9.5,2.1,5.9,19.4,-21.0,101.127,36.38,0,1,0,0,1,NONE,72,293
2026-05-27T23:39:54.372,1087332,0.97,-0.25,-0.18,6.2,13.5,4.6,5.8,19.3,-21.9,101.121,36.38,0,1,0,0,1,NONE,59,174
2026-05-27T23:39:54.419,1087384,1.01,-0.17,-0.21,12.8,3.5,4.9,6.2,19.3,-21.2,101.124,36.38,0,1,0,0,1,NONE,17,104
2026-05-27T23:39:54.473,1087432,0.91,-0.17,-0.16,24.2,-14.6,9.5,5.9,19.8,-22.1,101.125,36.38,0,1,0,0,1,NONE,17,92
2026-05-27T23:39:54.518,1087484,1.09,-0.27,-0.36,52.3,16.2,4.0,5.3,19.9,-22.9,101.124,36.38,0,1,0,0,1,NONE,17,107
2026-05-27T23:39:54.579,1087536,0.99,-0.12,-0.26,2.1,1.3,2.0,6.0,20.5,-21.2,101.127,36.38,0,1,0,0,1,NONE,43,206
2026-05-27T23:39:54.627,1087584,0.98,-0.11,-0.29,74.2,-5.9,10.5,5.6,21.5,-22.4,101.123,36.38,0,1,0,0,1,NONE,51,225
2026-05-27T23:39:54.675,1087632,0.9,-0.1,-0.23,61.1,-1.5,6.0,5.7,22.5,-23.1,101.125,36.38,0,1,0,0,1,NONE,67,250
2026-05-27T23:39:54.723,1087684,0.87,-0.06,-0.35,39.9,6.5,2.5,5.5,23.5,-22.4,101.128,36.38,0,1,0,0,1,NONE,63,214
2026-05-27T23:39:54.776,1087734,0.9,-0.06,-0.29,47.6,-2.4,-1.8,5.1,24.0,-24.2,101.126,36.38,0,1,0,0,1,NONE,53,198
2026-05-27T23:39:54.820,1087783,0.9,-0.04,-0.2,31.9,4.2,-6.0,4.9,25.1,-24.0,101.128,36.38,0,1,0,0,1,NONE,44,216
2026-05-27T23:39:54.876,1087834,1.05,-0.1,-0.28,14.3,3.3,-9.3,4.9,26.3,-23.2,101.124,36.38,0,1,0,0,1,NONE,25,165
2026-05-27T23:39:54.920,1087886,0.86,-0.09,-0.17,19.4,-2.4,-4.8,5.4,26.2,-24.6,101.124,36.37,0,1,0,0,1,NONE,28,178
2026-05-27T23:39:54.964,1087932,0.86,-0.14,-0.16,-7.8,12.4,-3.3,5.9,26.5,-23.6,101.128,36.38,0,1,0,0,1,NONE,28,168
2026-05-27T23:39:55.028,1087984,0.92,-0.12,-0.17,-13.6,16.5,-9.2,5.5,26.4,-23.5,101.126,36.38,0,1,0,0,1,NONE,28,158
2026-05-27T23:39:55.076,1088032,1.0,-0.2,-0.16,-31.6,17.8,-13.2,6.3,26.2,-23.9,101.125,36.38,0,1,0,0,1,NONE,29,177
2026-05-27T23:39:55.128,1088084,0.98,-0.2,-0.2,-30.6,6.8,-15.8,6.6,25.7,-23.4,101.124,36.38,0,1,0,0,1,NONE,124,483
2026-05-27T23:39:55.176,1088136,1.32,-0.18,-0.46,-22.0,16.2,-7.0,7.0,25.1,-23.0,101.124,36.38,0,1,0,0,1,NONE,132,553
2026-05-27T23:39:55.222,1088184,0.81,-0.25,-0.34,-14.0,7.9,-1.9,6.9,24.1,-22.6,101.126,36.38,0,1,0,0,1,NONE,165,605
2026-05-27T23:39:55.276,1088232,0.85,-0.03,-0.35,-34.7,21.5,-2.5,7.3,23.9,-21.1,101.124,36.38,0,1,0,0,1,NONE,103,401
2026-05-27T23:39:55.321,1088284,0.9,-0.23,-0.41,-42.5,19.7,-5.4,8.0,23.2,-20.5,101.123,36.38,0,0,0,0,0,NONE,52,241
2026-05-27T23:39:55.377,1088334,0.93,-0.23,-0.32,-14.9,-2.6,-0.7,8.3,22.2,-20.2,101.126,36.38,0,0,0,0,0,NONE,36,188
2026-05-27T23:39:55.413,1088382,0.91,-0.26,-0.31,-5.1,-4.6,7.0,8.3,22.3,-20.4,101.126,36.38,0,1,0,0,1,NONE,35,111
2026-05-27T23:39:55.477,1088434,0.81,-0.28,-0.27,-7.7,-14.2,1.4,8.5,21.2,-20.7,101.124,36.38,0,1,0,0,1,NONE,19,109
2026-05-27T23:39:55.527,1088486,0.79,-0.36,-0.23,-13.4,2.3,16.1,8.4,21.4,-21.3,101.122,36.38,0,1,0,0,1,NONE,65,118
2026-05-27T23:39:55.573,1088532,0.75,-0.51,-0.23,-39.8,44.9,25.5,8.5,19.9,-20.3,101.126,36.38,0,1,0,0,1,NONE,40,161
2026-05-27T23:39:55.620,1088584,0.83,-0.05,-0.4,-28.7,84.8,-3.9,9.9,18.4,-17.9,101.126,36.38,0,1,0,0,1,NONE,74,243
2026-05-27T23:39:55.673,1088632,1.04,-0.37,-0.31,-48.6,58.2,9.4,10.4,18.2,-17.7,101.124,36.38,0,1,0,0,1,NONE,43,221
2026-05-27T23:39:55.723,1088684,1.13,-0.2,-0.29,-7.1,35.7,19.4,10.8,17.1,-15.0,101.124,36.38,0,0,0,0,0,NONE,48,145
2026-05-27T23:39:55.778,1088736,0.93,-0.12,-0.47,-9.9,38.1,15.9,11.3,16.7,-14.7,101.123,36.38,0,0,0,0,0,NONE,25,141
2026-05-27T23:39:55.831,1088784,0.8,-0.37,-0.35,-26.8,28.3,-2.9,11.0,15.8,-14.0,101.122,36.38,0,0,0,0,0,NONE,67,367
2026-05-27T23:39:55.865,1088832,0.9,-0.23,-0.59,-7.0,29.3,2.7,11.6,15.3,-11.0,101.125,36.38,0,0,0,0,0,NONE,48,319
2026-05-27T23:39:55.925,1088884,1.08,-0.23,-0.43,-24.2,-16.4,-3.0,11.8,15.0,-9.9,101.125,36.38,0,0,0,0,0,NONE,69,272
2026-05-27T23:39:55.976,1088932,0.66,-0.29,-0.47,41.6,4.5,12.0,11.6,14.9,-10.2,101.124,36.38,0,0,0,0,0,NONE,61,316
2026-05-27T23:39:56.022,1088984,0.92,-0.25,-0.51,43.7,3.7,14.5,11.2,14.9,-12.0,101.126,36.38,0,0,0,0,0,NONE,38,211
2026-05-27T23:39:56.074,1089036,0.78,-0.19,-0.43,26.0,-12.6,5.2,11.1,15.1,-12.5,101.126,36.38,0,0,0,0,0,NONE,46,251
2026-05-27T23:39:56.130,1089084,0.84,-0.18,-0.42,1.1,-9.5,-4.3,11.2,15.4,-12.0,101.126,36.38,0,0,0,0,0,NONE,41,218
2026-05-27T23:39:56.171,1089132,0.85,-0.16,-0.45,-11.6,-3.2,-8.3,10.8,15.4,-12.9,101.125,36.38,0,0,0,0,0,NONE,43,235
2026-05-27T23:39:56.225,1089184,0.85,-0.2,-0.33,0.2,-18.2,-4.6,10.9,15.2,-14.0,101.129,36.38,0,0,0,0,0,NONE,94,475
2026-05-27T23:39:56.268,1089234,0.85,-0.21,-0.37,-13.3,-16.3,-4.2,10.6,14.9,-12.5,101.12,36.38,0,0,0,0,0,NONE,90,466
2026-05-27T23:39:56.317,1089282,0.81,-0.21,-0.35,8.4,0.1,-3.8,10.4,15.9,-12.2,101.128,36.38,0,0,0,0,0,NONE,171,728
2026-05-27T23:39:56.377,1089334,0.91,-0.22,-0.31,0.1,-2.4,-4.5,11.0,15.3,-12.5,101.126,36.38,0,0,0,0,0,NONE,159,787
2026-05-27T23:39:56.427,1089386,1.04,-0.17,-0.37,17.4,-4.0,1.6,11.1,15.6,-13.2,101.126,36.38,0,0,0,0,0,NONE,69,405
2026-05-27T23:39:56.475,1089432,0.97,-0.24,-0.3,11.0,-47.9,1.3,11.6,15.5,-13.4,101.126,36.38,0,0,0,0,0,NONE,275,1380
2026-05-27T23:39:56.525,1089484,0.85,-0.32,-0.3,-6.4,-25.7,2.5,11.0,15.7,-14.5,101.126,36.38,0,0,0,0,0,NONE,238,932
2026-05-27T23:39:56.574,1089532,1.04,-0.21,-0.49,13.5,-15.3,12.5,10.3,15.7,-15.2,101.126,36.38,0,0,0,0,0,NONE,258,1122
2026-05-27T23:39:56.623,1089584,0.84,-0.34,-0.35,-26.9,-14.5,-0.4,10.0,14.5,-16.4,101.124,36.38,0,0,0,0,0,NONE,111,564
2026-05-27T23:39:56.667,1089636,0.82,-0.28,-0.35,-32.2,-8.6,7.3,9.7,14.7,-15.1,101.125,36.38,0,0,0,0,0,NONE,88,442
2026-05-27T23:39:56.725,1089684,0.76,-0.24,-0.3,-33.6,3.0,9.9,9.6,13.8,-14.7,101.123,36.38,0,0,0,0,0,NONE,99,706
2026-05-27T23:39:56.763,1089732,1.03,-0.37,-0.27,-25.7,6.7,3.4,9.4,12.9,-14.7,101.124,36.38,0,0,0,0,0,NONE,51,302
2026-05-27T23:39:56.828,1089784,0.83,-0.28,-0.29,-35.0,-7.1,6.4,9.8,12.1,-13.9,101.124,36.38,0,0,0,0,0,NONE,37,235
2026-05-27T23:39:56.876,1089834,0.87,-0.28,-0.22,-18.9,4.6,5.8,9.8,10.9,-12.0,101.123,36.38,0,0,0,0,0,NONE,98,442
2026-05-27T23:39:56.924,1089883,0.93,-0.24,-0.26,-7.7,13.1,3.7,9.6,10.8,-12.4,101.124,36.38,0,0,0,0,0,NONE,187,782
2026-05-27T23:39:56.977,1089934,0.89,-0.23,-0.2,6.2,12.0,1.9,9.5,10.6,-12.7,101.121,36.38,0,0,0,0,0,NONE,124,863
2026-05-27T23:39:57.023,1089986,0.94,-0.22,-0.14,24.8,12.3,3.8,9.5,11.0,-12.2,101.127,36.38,0,0,0,0,0,NONE,96,625
2026-05-27T23:39:57.070,1090032,1.01,-0.25,-0.18,34.0,-4.2,0.9,9.6,11.1,-12.3,101.124,36.38,0,0,0,0,0,NONE,68,374
2026-05-27T23:39:57.116,1090084,0.91,-0.3,-0.11,44.2,-34.2,4.8,9.2,11.3,-12.6,101.122,36.38,0,0,0,0,0,NONE,58,358
2026-05-27T23:39:57.164,1090132,1.0,-0.26,-0.22,51.8,-8.4,9.5,9.0,10.8,-14.1,101.122,36.37,0,0,0,0,0,NONE,68,248
2026-05-27T23:39:57.229,1090184,1.0,-0.1,-0.5,46.1,4.8,-4.9,9.3,12.2,-15.3,101.123,36.38,0,0,0,0,0,NONE,37,184
2026-05-27T23:39:57.275,1090236,0.95,-0.3,-0.43,-8.7,1.9,0.2,8.7,12.3,-14.8,101.123,36.38,0,0,0,0,0,NONE,39,207
2026-05-27T23:39:57.323,1090284,0.81,-0.11,-0.21,59.9,-3.9,12.8,9.6,12.3,-15.5,101.12,36.37,0,0,0,0,0,NONE,47,210
2026-05-27T23:39:57.372,1090332,0.87,-0.13,-0.22,40.6,4.0,9.2,8.4,12.7,-16.7,101.125,36.38,0,0,0,0,0,NONE,37,328
2026-05-27T23:39:57.421,1090384,0.97,-0.09,-0.33,17.4,14.0,-2.0,8.9,13.1,-16.2,101.126,36.38,0,0,0,0,0,NONE,67,475
2026-05-27T23:39:57.467,1090434,0.95,-0.2,-0.2,18.1,1.2,-2.1,9.2,13.1,-16.1,101.123,36.38,0,0,0,0,0,NONE,66,476
2026-05-27T23:39:57.516,1090482,0.94,-0.15,-0.22,9.1,12.6,-1.3,9.1,13.4,-17.5,101.126,36.38,0,0,0,0,0,NONE,45,274
2026-05-27T23:39:57.569,1090534,0.91,-0.09,-0.19,24.4,9.3,-0.5,9.4,13.5,-16.1,101.127,36.38,0,0,0,0,0,NONE,57,273
2026-05-27T23:39:57.629,1090586,0.93,-0.15,-0.23,37.4,20.2,-1.3,9.8,14.1,-16.7,101.126,36.38,0,0,0,0,0,NONE,46,209
2026-05-27T23:39:57.661,1090632,0.9,-0.25,-0.28,5.7,23.9,-3.8,10.2,14.5,-16.3,101.126,36.38,0,0,0,0,0,NONE,40,216
2026-05-27T23:39:57.728,1090684,1.08,-0.12,-0.29,-3.5,13.4,-4.2,11.1,14.4,-15.6,101.124,36.38,0,0,0,0,0,NONE,28,135
2026-05-27T23:39:57.775,1090732,0.93,-0.12,-0.33,4.0,-1.0,-3.6,11.0,14.0,-15.1,101.126,36.38,0,0,0,0,0,NONE,31,140
2026-05-27T23:39:57.826,1090784,0.92,-0.2,-0.2,25.0,2.8,-3.8,11.4,14.3,-15.7,101.124,36.37,0,0,0,0,0,NONE,30,139
2026-05-27T23:39:57.872,1090834,0.95,-0.27,-0.33,19.7,-3.7,-4.6,11.8,14.0,-16.1,101.125,36.38,0,0,0,0,0,NONE,38,197
2026-05-27T23:39:57.926,1090882,0.9,-0.13,-0.19,17.5,-14.8,-7.9,11.1,14.6,-16.2,101.13,36.38,0,0,0,0,0,NONE,47,186
2026-05-27T23:39:57.982,1090934,0.96,-0.17,-0.27,24.3,-10.2,-4.9,11.1,14.8,-17.2,101.125,36.38,0,0,0,0,0,NONE,32,175
2026-05-27T23:39:58.020,1090986,0.94,-0.12,-0.23,21.7,-15.2,-5.7,11.1,15.0,-18.2,101.124,36.38,0,0,0,0,0,NONE,42,202
2026-05-27T23:39:58.069,1091032,0.94,-0.22,-0.25,13.7,-15.0,-5.7,11.4,15.3,-18.1,101.123,36.38,0,0,0,0,0,NONE,31,190
2026-05-27T23:39:58.130,1091086,1.14,-0.16,-0.34,13.7,-5.7,-0.7,11.5,15.3,-18.7,101.123,36.37,0,0,0,0,0,NONE,72,439
2026-05-27T23:39:58.162,1091132,0.89,-0.09,-0.29,25.9,-22.0,4.3,11.2,15.8,-18.4,101.126,36.38,0,0,0,0,0,NONE,56,263
2026-05-27T23:39:58.227,1091184,1.02,-0.22,-0.35,27.4,-4.5,0.4,10.7,16.1,-21.7,101.124,36.37,0,0,0,0,0,NONE,53,243
2026-05-27T23:39:58.277,1091236,0.82,-0.23,-0.37,2.8,-12.2,0.1,11.0,15.8,-21.5,101.125,36.38,0,0,0,0,0,NONE,69,346
2026-05-27T23:39:58.324,1091284,0.82,-0.16,-0.33,-1.8,5.9,7.6,10.9,15.2,-21.4,101.127,36.38,0,0,0,0,0,NONE,42,205
2026-05-27T23:39:58.370,1091332,0.99,-0.17,-0.28,-0.5,-3.2,4.2,10.9,14.7,-22.4,101.122,36.37,0,0,0,0,0,NONE,70,284
2026-05-27T23:39:58.421,1091384,0.98,-0.12,-0.29,18.1,-15.0,-1.3,10.2,16.1,-22.1,101.122,36.38,0,0,0,0,0,NONE,53,224
2026-05-27T23:39:58.467,1091434,0.92,-0.14,-0.15,12.6,-7.9,-4.2,9.8,16.2,-23.3,101.127,36.38,0,0,0,0,0,NONE,35,177
2026-05-27T23:39:58.515,1091482,0.92,-0.22,-0.21,17.9,-9.5,-3.7,9.3,16.2,-23.4,101.123,36.38,0,0,0,0,0,NONE,36,216
