pc_timestamp_iso,ms,ax,ay,az,gx,gy,gz,mx,my,mz,press,baro_t,prox,cr,cg,cb,light,gesture,mic,p2p
2026-05-28T00:01:41.794,2394802,-0.89,-0.39,0.26,7.6,6.2,2.6,-34.5,48.2,17.0,101.107,36.61,0,0,0,0,0,NONE,62,387
2026-05-28T00:01:41.841,2394841,-0.88,-0.41,0.26,7.9,7.5,2.2,-34.8,48.0,17.0,101.106,36.63,0,1,1,1,3,NONE,107,654
2026-05-28T00:01:41.889,2394892,-0.87,-0.42,0.25,5.1,6.8,1.5,-34.4,48.0,17.6,101.109,36.64,0,1,1,1,3,NONE,132,976
2026-05-28T00:01:41.941,2394944,-0.86,-0.41,0.28,5.7,5.0,0.4,-35.1,48.2,17.0,101.11,36.65,0,1,1,1,3,NONE,87,541
2026-05-28T00:01:41.984,2394992,-0.88,-0.42,0.27,3.1,4.2,1.7,-35.3,48.0,16.0,101.112,36.65,0,1,1,1,3,NONE,78,509
2026-05-28T00:01:42.041,2395040,-0.89,-0.41,0.28,5.5,4.9,0.6,-34.9,48.1,16.6,101.105,36.65,0,1,1,1,3,NONE,86,466
2026-05-28T00:01:42.094,2395092,-0.87,-0.42,0.27,5.9,6.2,0.3,-35.3,47.8,17.4,101.107,36.66,0,1,1,1,3,NONE,89,578
2026-05-28T00:01:42.142,2395144,-0.89,-0.41,0.28,4.5,5.1,-0.1,-35.0,47.7,17.3,101.109,36.66,0,1,1,1,3,NONE,68,448
2026-05-28T00:01:42.189,2395190,-0.87,-0.41,0.29,0.7,4.8,-0.8,-34.9,47.9,16.6,101.104,36.66,0,1,1,1,3,NONE,100,704
2026-05-28T00:01:42.242,2395242,-0.88,-0.39,0.27,1.3,10.1,0.1,-34.9,47.8,16.1,101.108,36.67,0,2,1,1,4,NONE,175,1210
2026-05-28T00:01:42.285,2395290,-0.88,-0.42,0.3,-0.3,10.4,-1.4,-35.2,48.0,17.5,101.107,36.67,0,2,1,1,4,NONE,111,760
2026-05-28T00:01:42.348,2395342,-0.88,-0.4,0.3,-2.3,8.6,-0.5,-35.7,48.1,17.4,101.109,36.68,0,2,1,1,4,NONE,88,642
2026-05-28T00:01:42.395,2395393,-0.88,-0.37,0.28,0.2,9.9,-0.1,-35.8,48.0,18.3,101.109,36.68,0,2,1,1,4,NONE,80,515
2026-05-28T00:01:42.442,2395442,-0.87,-0.42,0.28,2.9,10.1,-1.4,-35.9,48.0,16.5,101.108,36.68,0,2,1,1,4,NONE,97,844
2026-05-28T00:01:42.490,2395490,-0.86,-0.4,0.31,0.7,6.7,0.9,-35.9,48.0,16.3,101.109,36.68,0,2,1,1,4,NONE,105,778
2026-05-28T00:01:42.542,2395542,-0.86,-0.42,0.31,-1.7,2.3,1.6,-36.0,48.0,16.8,101.111,36.69,0,2,1,1,4,NONE,101,718
2026-05-28T00:01:42.585,2395592,-0.86,-0.37,0.33,-2.0,1.6,0.7,-35.6,48.3,16.2,101.111,36.7,0,2,1,1,4,NONE,97,651
2026-05-28T00:01:42.643,2395640,-0.88,-0.39,0.3,0.5,-1.1,-0.9,-36.1,48.4,16.0,101.109,36.69,0,2,1,1,4,NONE,94,688
2026-05-28T00:01:42.696,2395692,-0.88,-0.37,0.32,-0.8,-0.4,-1.2,-35.7,47.8,17.1,101.108,36.68,0,2,1,1,4,NONE,56,310
2026-05-28T00:01:42.743,2395744,-0.87,-0.39,0.3,-3.6,0.4,1.4,-36.4,48.1,16.4,101.11,36.7,0,2,1,1,4,NONE,44,287
2026-05-28T00:01:42.791,2395790,-0.9,-0.33,0.32,0.4,3.9,-0.9,-35.9,48.4,17.3,101.11,36.69,0,2,1,1,4,NONE,41,186
2026-05-28T00:01:42.847,2395842,-0.88,-0.36,0.32,2.0,3.2,1.2,-35.7,48.8,16.5,101.111,36.7,0,2,1,1,4,NONE,82,473
2026-05-28T00:01:42.895,2395890,-0.88,-0.36,0.3,9.1,6.1,4.5,-36.1,49.1,17.0,101.109,36.7,0,2,1,1,4,NONE,358,1313
2026-05-28T00:01:42.947,2395942,-0.89,-0.37,0.3,5.3,2.6,-1.3,-36.3,48.2,15.1,101.107,36.7,0,2,1,1,4,NONE,189,1010
2026-05-28T00:01:42.997,2395993,-0.88,-0.38,0.35,5.4,-0.4,-1.1,-36.5,48.4,16.1,101.107,36.7,0,2,1,1,4,NONE,119,672
2026-05-28T00:01:43.045,2396042,-0.87,-0.39,0.31,4.6,1.8,-1.2,-36.0,47.9,16.5,101.105,36.7,0,2,1,1,4,NONE,56,348
2026-05-28T00:01:43.088,2396090,-0.85,-0.36,0.34,-3.7,-5.5,-0.2,-36.3,48.1,15.6,101.113,36.7,0,2,1,1,4,NONE,61,327
2026-05-28T00:01:43.144,2396142,-0.9,-0.34,0.31,-1.9,-6.0,0.4,-36.5,48.0,15.7,101.106,36.7,0,2,1,1,4,NONE,111,549
2026-05-28T00:01:43.183,2396192,-0.87,-0.34,0.3,0.0,-3.4,0.9,-35.9,47.8,15.9,101.106,36.7,0,2,1,1,4,NONE,108,446
2026-05-28T00:01:43.246,2396240,-0.9,-0.33,0.3,4.1,-0.2,1.7,-35.9,48.7,17.2,101.107,36.7,0,1,1,1,3,NONE,73,337
2026-05-28T00:01:43.296,2396292,-0.92,-0.35,0.28,7.9,4.3,0.4,-35.6,48.3,18.2,101.109,36.7,0,1,1,1,3,NONE,76,437
2026-05-28T00:01:43.346,2396344,-0.93,-0.36,0.28,6.4,4.2,0.9,-35.9,48.3,16.5,101.109,36.7,0,1,1,1,3,NONE,116,622
2026-05-28T00:01:43.395,2396390,-0.89,-0.35,0.29,8.2,5.6,2.0,-35.9,48.7,17.1,101.11,36.7,0,1,1,1,3,NONE,70,358
2026-05-28T00:01:43.445,2396442,-0.88,-0.37,0.29,7.4,4.3,2.9,-35.9,47.6,16.3,101.108,36.71,0,2,1,1,4,NONE,49,286
2026-05-28T00:01:43.491,2396490,-0.89,-0.36,0.28,6.7,0.9,1.0,-35.8,47.6,16.9,101.108,36.7,0,2,1,1,4,NONE,135,655
2026-05-28T00:01:43.545,2396542,-0.9,-0.37,0.27,5.1,-2.2,2.4,-35.9,47.7,15.6,101.109,36.71,0,2,1,1,4,NONE,176,1142
2026-05-28T00:01:43.598,2396594,-0.9,-0.34,0.25,4.6,0.0,3.8,-35.6,47.9,17.5,101.109,36.7,0,2,1,1,4,NONE,109,568
2026-05-28T00:01:43.647,2396642,-0.9,-0.37,0.28,2.8,-0.1,2.7,-35.7,48.2,16.9,101.11,36.71,0,2,1,1,4,NONE,146,762
2026-05-28T00:01:43.684,2396690,-0.91,-0.34,0.26,3.1,4.2,3.5,-35.5,47.8,16.7,101.106,36.71,0,2,1,1,4,NONE,90,490
2026-05-28T00:01:43.745,2396742,-0.9,-0.36,0.27,8.6,5.7,2.4,-35.1,47.8,16.6,101.107,36.71,0,2,1,1,4,NONE,103,493
2026-05-28T00:01:43.784,2396792,-0.9,-0.37,0.26,6.7,4.2,2.7,-36.0,47.6,16.3,101.105,36.7,0,2,1,1,4,NONE,61,367
2026-05-28T00:01:43.846,2396841,-0.9,-0.36,0.27,7.1,3.8,2.9,-35.3,47.3,17.0,101.108,36.71,0,2,1,1,4,NONE,111,648
2026-05-28T00:01:43.896,2396892,-0.91,-0.36,0.25,6.4,5.1,3.5,-35.8,48.0,16.1,101.108,36.71,0,2,1,1,4,NONE,142,1001
2026-05-28T00:01:43.946,2396944,-0.89,-0.37,0.26,6.9,4.1,2.6,-36.2,47.9,16.9,101.109,36.71,0,2,1,1,4,NONE,160,885
2026-05-28T00:01:43.991,2396990,-0.89,-0.37,0.27,6.3,3.1,2.0,-35.6,47.7,17.9,101.11,36.71,0,2,1,1,4,NONE,149,675
2026-05-28T00:01:44.046,2397042,-0.88,-0.38,0.27,5.2,3.0,2.4,-35.5,47.8,16.5,101.114,36.71,0,2,1,1,4,NONE,204,937
2026-05-28T00:01:44.092,2397090,-0.88,-0.39,0.27,0.7,2.1,0.4,-35.6,47.9,17.2,101.109,36.71,0,2,1,1,4,NONE,121,813
2026-05-28T00:01:44.146,2397142,-0.89,-0.37,0.28,-1.7,1.3,-0.7,-35.5,48.4,16.5,101.107,36.7,0,2,1,1,4,NONE,53,321
2026-05-28T00:01:44.196,2397192,-0.89,-0.36,0.27,-1.3,1.2,1.0,-35.6,47.8,17.3,101.111,36.71,0,2,1,1,4,NONE,63,405
2026-05-28T00:01:44.239,2397240,-0.91,-0.33,0.29,4.8,3.4,0.1,-35.7,47.8,17.4,101.107,36.71,0,2,1,1,4,NONE,54,317
2026-05-28T00:01:44.296,2397292,-0.9,-0.39,0.26,7.7,5.4,3.2,-35.5,47.6,17.3,101.108,36.71,0,2,1,1,4,NONE,53,325
2026-05-28T00:01:44.346,2397344,-0.92,-0.33,0.26,6.7,5.6,3.1,-35.5,47.5,17.7,101.107,36.71,0,1,1,1,3,NONE,54,317
2026-05-28T00:01:44.393,2397390,-0.89,-0.4,0.27,3.6,2.1,3.9,-35.5,46.9,17.1,101.111,36.71,0,1,1,1,3,NONE,69,423
2026-05-28T00:01:44.446,2397442,-0.94,-0.35,0.27,4.7,1.7,4.2,-35.1,47.9,17.8,101.108,36.71,0,1,1,1,3,NONE,31,192
2026-05-28T00:01:44.488,2397490,-0.87,-0.39,0.26,11.7,5.1,5.8,-35.2,47.4,18.7,101.107,36.71,0,1,1,1,3,NONE,29,177
2026-05-28T00:01:44.547,2397542,-0.9,-0.39,0.25,15.0,5.6,2.7,-35.3,47.6,16.9,101.108,36.72,0,1,1,1,3,NONE,43,260
2026-05-28T00:01:44.596,2397594,-0.88,-0.4,0.28,10.5,4.6,2.6,-35.1,47.0,18.9,101.11,36.71,0,1,1,1,3,NONE,39,213
2026-05-28T00:01:44.646,2397642,-0.89,-0.39,0.26,8.3,3.7,2.1,-35.5,47.5,19.2,101.108,36.71,0,1,1,1,3,NONE,55,413
2026-05-28T00:01:44.690,2397690,-0.9,-0.39,0.26,4.8,3.8,2.3,-35.6,47.5,17.9,101.111,36.71,0,1,1,1,3,NONE,66,315
2026-05-28T00:01:44.747,2397742,-0.89,-0.39,0.27,2.9,4.0,2.5,-35.4,46.8,17.4,101.109,36.71,0,1,1,1,3,NONE,72,426
2026-05-28T00:01:44.796,2397792,-0.89,-0.39,0.27,0.0,3.7,2.3,-35.4,46.9,17.1,101.108,36.71,0,1,1,1,3,NONE,77,392
2026-05-28T00:01:44.845,2397841,-0.89,-0.38,0.27,1.1,4.4,2.3,-35.6,47.3,17.7,101.109,36.71,0,1,1,1,3,NONE,53,281
2026-05-28T00:01:44.896,2397892,-0.88,-0.39,0.27,1.7,5.7,2.7,-35.7,47.5,17.7,101.109,36.71,0,1,1,1,3,NONE,72,495
2026-05-28T00:01:44.947,2397944,-0.88,-0.38,0.28,2.0,4.3,1.4,-35.2,48.0,18.2,101.109,36.71,0,1,1,1,3,NONE,99,626
2026-05-28T00:01:44.991,2397990,-0.89,-0.38,0.28,1.0,2.4,1.9,-35.4,47.7,17.5,101.106,36.71,0,1,1,1,3,NONE,116,646
2026-05-28T00:01:45.047,2398042,-0.89,-0.38,0.27,2.5,2.6,2.5,-35.7,47.9,17.0,101.113,36.71,0,1,1,1,3,NONE,98,589
2026-05-28T00:01:45.088,2398090,-0.9,-0.37,0.27,2.4,1.8,2.1,-35.2,47.7,17.3,101.108,36.71,0,1,1,1,3,NONE,84,551
2026-05-28T00:01:45.148,2398142,-0.9,-0.37,0.27,6.0,3.5,2.4,-36.4,47.4,16.8,101.108,36.72,0,1,1,1,3,NONE,57,329
2026-05-28T00:01:45.193,2398192,-0.9,-0.38,0.26,7.4,4.9,3.4,-35.7,47.9,17.4,101.107,36.71,0,1,1,1,3,NONE,60,379
2026-05-28T00:01:45.243,2398240,-0.89,-0.38,0.27,8.9,5.9,4.0,-35.7,48.1,17.2,101.107,36.71,0,1,1,1,3,NONE,38,241
2026-05-28T00:01:45.292,2398292,-0.88,-0.39,0.28,8.5,6.3,3.7,-35.4,48.1,17.7,101.11,36.71,0,1,1,1,3,NONE,31,155
2026-05-28T00:01:45.348,2398344,-0.88,-0.39,0.29,8.2,6.3,3.7,-36.1,48.0,17.2,101.106,36.71,0,1,1,1,3,NONE,69,346
2026-05-28T00:01:45.388,2398390,-0.87,-0.4,0.28,5.8,5.5,2.2,-35.4,47.3,16.8,101.109,36.71,0,1,1,1,3,NONE,58,392
2026-05-28T00:01:45.448,2398442,-0.88,-0.39,0.28,1.9,4.0,1.1,-35.8,47.8,17.8,101.109,36.71,0,1,1,1,3,NONE,91,611
2026-05-28T00:01:45.494,2398490,-0.89,-0.39,0.27,3.5,4.4,1.6,-35.5,47.5,16.8,101.108,36.71,0,1,1,1,3,NONE,44,295
2026-05-28T00:01:45.546,2398542,-0.88,-0.4,0.27,5.6,4.8,1.5,-35.7,47.4,16.7,101.109,36.71,0,1,1,1,3,NONE,64,375
2026-05-28T00:01:45.596,2398594,-0.87,-0.39,0.27,8.3,5.5,2.1,-35.1,48.0,17.1,101.108,36.71,0,1,1,1,3,NONE,76,412
2026-05-28T00:01:45.646,2398642,-0.86,-0.4,0.27,11.4,6.1,3.0,-35.6,47.8,18.7,101.109,36.71,0,1,1,1,3,NONE,111,725
2026-05-28T00:01:45.689,2398690,-0.88,-0.41,0.27,11.1,4.5,1.3,-35.8,47.6,16.9,101.111,36.71,0,1,1,1,3,NONE,95,520
2026-05-28T00:01:45.746,2398742,-0.87,-0.41,0.27,9.0,3.8,1.2,-36.1,47.8,17.5,101.106,36.71,0,1,1,1,3,NONE,61,365
2026-05-28T00:01:45.793,2398792,-0.89,-0.41,0.26,6.5,2.7,1.6,-35.8,47.2,18.0,101.107,36.71,0,1,1,1,3,NONE,96,556
2026-05-28T00:01:45.846,2398840,-0.89,-0.41,0.27,4.9,2.7,2.2,-36.0,47.7,18.0,101.106,36.71,0,1,1,1,3,NONE,106,642
2026-05-28T00:01:45.896,2398892,-0.88,-0.4,0.27,4.3,3.2,2.8,-35.7,47.2,18.0,101.109,36.72,0,1,1,1,3,NONE,57,390
2026-05-28T00:01:45.952,2398944,-0.87,-0.41,0.27,4.2,3.5,3.2,-35.5,46.7,18.0,101.111,36.71,0,1,1,1,3,NONE,47,335
2026-05-28T00:01:45.992,2398990,-0.87,-0.42,0.27,4.8,3.4,2.6,-35.2,46.7,18.8,101.107,36.71,0,1,1,1,3,NONE,103,619
2026-05-28T00:01:46.047,2399042,-0.88,-0.41,0.26,5.1,2.5,2.6,-35.0,46.1,18.2,101.108,36.71,0,1,1,1,3,NONE,57,368
2026-05-28T00:01:46.090,2399090,-0.88,-0.41,0.26,5.7,2.7,2.3,-35.7,46.4,18.1,101.111,36.71,0,1,1,1,3,NONE,48,324
2026-05-28T00:01:46.147,2399142,-0.88,-0.41,0.25,7.0,3.1,1.3,-35.2,47.1,17.8,101.111,36.71,0,1,1,1,3,NONE,92,460
2026-05-28T00:01:46.197,2399192,-0.88,-0.41,0.25,7.9,3.8,1.0,-35.7,46.9,18.8,101.108,36.71,0,1,1,1,3,NONE,68,487
2026-05-28T00:01:46.246,2399241,-0.88,-0.41,0.26,8.2,4.2,1.1,-35.5,46.5,18.9,101.109,36.71,0,1,1,1,3,NONE,49,336
2026-05-28T00:01:46.296,2399292,-0.88,-0.42,0.25,6.7,3.5,1.5,-35.4,46.3,18.0,101.109,36.71,0,1,1,1,3,NONE,54,319
2026-05-28T00:01:46.348,2399344,-0.88,-0.42,0.26,7.0,4.2,1.6,-35.4,46.7,19.1,101.108,36.71,0,1,1,1,3,NONE,25,161
2026-05-28T00:01:46.393,2399390,-0.87,-0.42,0.27,5.9,4.0,2.1,-35.4,46.4,18.6,101.108,36.71,0,1,1,1,3,NONE,21,127
2026-05-28T00:01:46.447,2399442,-0.86,-0.42,0.26,6.8,3.1,0.4,-35.6,45.8,19.0,101.107,36.71,0,1,1,1,3,NONE,119,540
2026-05-28T00:01:46.490,2399490,-0.86,-0.43,0.28,6.8,3.7,-0.2,-35.7,45.8,17.8,101.109,36.71,0,1,1,1,3,NONE,105,557
2026-05-28T00:01:46.547,2399542,-0.88,-0.43,0.26,4.8,2.5,-0.8,-35.9,46.4,19.2,101.109,36.71,0,1,1,1,3,NONE,54,259
2026-05-28T00:01:46.599,2399594,-0.89,-0.41,0.25,6.2,3.2,0.5,-35.9,45.8,19.9,101.113,36.72,0,1,1,1,3,NONE,69,394
2026-05-28T00:01:46.647,2399642,-0.87,-0.42,0.26,8.9,4.6,1.6,-35.7,45.8,18.3,101.113,36.72,0,1,1,1,3,NONE,34,212
2026-05-28T00:01:46.692,2399690,-0.88,-0.43,0.24,9.6,4.2,1.8,-35.8,46.4,18.5,101.105,36.71,0,1,1,1,3,NONE,51,294
2026-05-28T00:01:46.746,2399742,-0.87,-0.43,0.25,8.0,2.9,1.9,-35.7,45.8,18.8,101.112,36.71,0,1,1,1,3,NONE,43,235
2026-05-28T00:01:46.797,2399792,-0.87,-0.43,0.25,6.4,1.7,1.4,-35.1,45.8,19.0,101.11,36.71,0,1,1,1,3,NONE,58,390
2026-05-28T00:01:46.846,2399840,-0.87,-0.43,0.23,5.0,-0.2,1.5,-35.6,45.0,20.3,101.108,36.71,0,1,1,1,3,NONE,79,458
2026-05-28T00:01:46.898,2399892,-0.87,-0.43,0.24,6.2,-0.2,1.2,-35.2,45.3,18.9,101.108,36.71,0,1,1,1,3,NONE,85,452
2026-05-28T00:01:46.947,2399944,-0.9,-0.43,0.23,8.4,-0.3,1.0,-34.9,45.4,19.6,101.107,36.71,0,2,1,1,4,NONE,55,278
2026-05-28T00:01:46.995,2399990,-0.9,-0.41,0.22,7.7,-1.2,1.2,-35.6,44.9,20.1,101.109,36.71,0,2,1,1,4,NONE,28,190
2026-05-28T00:01:47.047,2400042,-0.88,-0.42,0.21,7.9,-2.6,0.5,-35.2,44.9,20.3,101.107,36.71,0,2,1,1,4,NONE,47,247
2026-05-28T00:01:47.092,2400090,-0.89,-0.42,0.21,8.0,-1.4,0.5,-34.6,44.9,20.6,101.106,36.71,0,2,1,1,4,NONE,54,294
2026-05-28T00:01:47.147,2400142,-0.89,-0.4,0.19,6.3,0.0,-1.3,-35.4,44.9,19.7,101.106,36.71,0,1,1,1,3,NONE,69,308
2026-05-28T00:01:47.196,2400194,-0.91,-0.39,0.19,9.7,3.7,-2.4,-34.9,44.9,19.7,101.105,36.7,0,1,1,1,3,NONE,45,290
2026-05-28T00:01:47.248,2400242,-0.9,-0.41,0.2,11.1,4.9,-2.2,-35.4,44.3,20.7,101.109,36.7,0,2,1,1,4,NONE,60,356
2026-05-28T00:01:47.296,2400290,-0.89,-0.43,0.21,7.0,5.6,-0.4,-35.0,44.7,20.8,101.105,36.71,0,2,1,1,4,NONE,139,793
2026-05-28T00:01:47.347,2400342,-0.9,-0.41,0.19,5.7,5.1,1.4,-35.1,44.8,21.4,101.107,36.71,0,2,1,1,4,NONE,164,693
2026-05-28T00:01:47.396,2400392,-0.9,-0.43,0.2,2.9,5.2,2.6,-35.2,44.1,20.5,101.107,36.71,0,2,1,1,4,NONE,93,585
2026-05-28T00:01:47.445,2400440,-0.88,-0.41,0.21,0.5,4.5,0.4,-35.2,44.7,20.3,101.105,36.71,0,2,1,1,4,NONE,93,401
2026-05-28T00:01:47.496,2400492,-0.91,-0.43,0.21,1.5,4.5,2.2,-35.2,44.4,19.5,101.104,36.71,0,2,1,1,4,NONE,72,316
2026-05-28T00:01:47.548,2400544,-0.89,-0.4,0.2,-0.1,4.0,0.9,-35.3,44.6,19.3,101.104,36.7,0,2,1,1,4,NONE,63,241
2026-05-28T00:01:47.594,2400590,-0.9,-0.41,0.21,3.0,5.0,3.2,-35.2,43.8,19.9,101.106,36.7,0,2,1,1,4,NONE,64,266
2026-05-28T00:01:47.647,2400642,-0.9,-0.41,0.2,1.5,5.1,2.9,-35.5,44.8,19.8,101.109,36.71,0,1,1,1,3,NONE,48,244
2026-05-28T00:01:47.695,2400690,-0.9,-0.41,0.22,1.8,4.7,2.2,-35.0,44.8,20.1,101.105,36.71,0,1,1,1,3,NONE,95,546
2026-05-28T00:01:47.747,2400742,-0.88,-0.42,0.21,0.2,4.2,2.6,-35.8,44.5,19.5,101.107,36.71,0,1,1,1,3,NONE,95,559
2026-05-28T00:01:47.797,2400794,-0.89,-0.41,0.22,0.2,3.3,3.1,-35.4,44.6,21.0,101.109,36.71,0,1,1,1,3,NONE,74,401
2026-05-28T00:01:47.847,2400842,-0.89,-0.41,0.22,-1.8,1.8,2.2,-35.8,44.8,19.5,101.109,36.7,0,1,1,1,3,NONE,58,273
2026-05-28T00:01:47.895,2400890,-0.89,-0.4,0.23,-0.7,1.9,2.2,-35.1,45.4,20.4,101.109,36.71,0,1,1,1,3,NONE,67,404
2026-05-28T00:01:47.946,2400942,-0.9,-0.4,0.23,-1.3,1.2,2.5,-35.3,44.9,19.3,101.106,36.71,0,1,1,1,3,NONE,58,258
2026-05-28T00:01:47.998,2400992,-0.9,-0.39,0.22,0.6,2.7,2.9,-35.1,44.7,19.3,101.109,36.7,0,1,1,1,3,NONE,79,445
2026-05-28T00:01:48.046,2401041,-0.89,-0.41,0.23,3.1,3.7,4.0,-34.9,45.7,19.1,101.107,36.7,0,1,1,1,3,NONE,85,476
2026-05-28T00:01:48.096,2401092,-0.91,-0.4,0.22,7.2,5.9,4.7,-34.9,45.5,19.7,101.114,36.71,0,1,1,1,3,NONE,62,391
2026-05-28T00:01:48.148,2401144,-0.9,-0.42,0.23,10.8,6.8,4.8,-35.4,45.1,19.1,101.108,36.71,0,1,1,1,3,NONE,129,912
2026-05-28T00:01:48.195,2401190,-0.87,-0.42,0.24,10.6,7.8,3.7,-34.9,45.3,19.6,101.107,36.7,0,1,1,1,3,NONE,95,731
2026-05-28T00:01:48.246,2401243,-0.87,-0.44,0.26,5.7,6.4,3.5,-35.6,44.9,19.3,101.113,36.71,0,1,1,1,3,NONE,132,814
2026-05-28T00:01:48.295,2401290,-0.86,-0.43,0.24,4.0,4.5,2.2,-35.6,45.2,19.7,101.111,36.71,0,1,1,1,3,NONE,71,533
2026-05-28T00:01:48.347,2401343,-0.88,-0.42,0.23,2.2,3.4,1.3,-35.8,45.4,20.7,101.105,36.71,0,1,1,1,3,NONE,87,533
2026-05-28T00:01:48.396,2401394,-0.88,-0.42,0.24,0.9,3.3,1.6,-36.0,45.0,20.1,101.103,36.7,0,1,1,1,3,NONE,132,785
2026-05-28T00:01:48.447,2401442,-0.88,-0.42,0.24,-1.1,1.9,0.4,-35.4,44.9,20.0,101.108,36.7,0,1,1,1,3,NONE,65,484
2026-05-28T00:01:48.496,2401490,-0.89,-0.42,0.24,-1.0,1.5,1.6,-36.0,45.3,19.2,101.107,36.71,0,1,1,1,3,NONE,76,514
2026-05-28T00:01:48.546,2401543,-0.88,-0.41,0.23,-0.1,2.1,2.0,-36.0,45.4,18.5,101.111,36.71,0,1,1,1,3,NONE,86,613
2026-05-28T00:01:48.596,2401592,-0.9,-0.41,0.23,1.3,2.8,2.6,-35.5,45.4,20.0,101.109,36.71,0,1,1,1,3,NONE,71,428
2026-05-28T00:01:48.645,2401640,-0.88,-0.43,0.23,1.1,3.6,4.0,-35.4,45.5,19.3,101.111,36.71,0,1,1,1,3,NONE,76,389
2026-05-28T00:01:48.696,2401692,-0.88,-0.43,0.24,-0.7,4.2,6.2,-35.3,45.9,19.3,101.108,36.7,0,1,1,1,3,NONE,76,497
2026-05-28T00:01:48.746,2401744,-0.88,-0.42,0.24,-1.8,4.3,5.9,-35.1,45.5,19.9,101.111,36.71,0,1,1,1,3,NONE,71,464
2026-05-28T00:01:48.796,2401790,-0.88,-0.42,0.24,-1.3,4.8,7.2,-35.5,46.0,19.7,101.106,36.7,0,1,1,1,3,NONE,65,418
2026-05-28T00:01:48.847,2401842,-0.88,-0.41,0.22,-1.1,2.9,7.5,-35.0,46.5,19.1,101.108,36.7,0,1,1,1,3,NONE,71,730
2026-05-28T00:01:48.895,2401890,-0.89,-0.42,0.22,-0.4,0.5,6.5,-35.4,46.1,19.4,101.111,36.7,0,1,1,1,3,NONE,56,340
2026-05-28T00:01:48.947,2401942,-0.87,-0.43,0.23,-0.1,0.2,6.8,-35.5,46.2,18.0,101.106,36.7,0,1,1,1,3,NONE,35,211
2026-05-28T00:01:48.998,2401994,-0.88,-0.43,0.22,-2.4,-3.2,5.7,-34.5,46.7,19.3,101.109,36.7,0,1,1,1,3,NONE,37,229
2026-05-28T00:01:49.047,2402042,-0.87,-0.44,0.24,-0.1,-3.0,6.5,-34.3,46.9,18.5,101.108,36.7,0,1,1,1,3,NONE,30,243
2026-05-28T00:01:49.096,2402094,-0.89,-0.42,0.21,2.0,-2.6,7.0,-34.5,46.8,18.3,101.112,36.7,0,1,1,1,3,NONE,29,177
2026-05-28T00:01:49.145,2402140,-0.88,-0.44,0.2,2.8,-1.8,5.9,-33.9,47.2,19.5,101.11,36.7,0,1,1,1,3,NONE,23,138
2026-05-28T00:01:49.196,2402192,-0.88,-0.44,0.22,8.2,3.4,2.7,-34.3,47.1,19.9,101.114,36.7,0,1,1,1,3,NONE,28,184
2026-05-28T00:01:49.245,2402240,-0.87,-0.47,0.19,4.8,3.4,2.0,-34.1,47.0,19.0,101.107,36.7,0,1,1,1,3,NONE,44,268
2026-05-28T00:01:49.297,2402292,-0.87,-0.5,0.16,-0.1,0.4,1.2,-34.1,47.5,18.6,101.109,36.7,0,1,1,1,3,NONE,40,203
2026-05-28T00:01:49.348,2402344,-0.91,-0.49,0.18,-10.0,-1.8,0.5,-33.9,47.6,18.6,101.112,36.71,0,1,1,1,3,NONE,39,197
2026-05-28T00:01:49.394,2402390,-0.89,-0.44,0.19,-11.0,-0.5,0.1,-34.1,46.9,18.9,101.11,36.7,0,1,1,1,3,NONE,34,189
2026-05-28T00:01:49.447,2402442,-0.9,-0.45,0.17,-2.5,10.4,1.6,-35.0,48.1,20.1,101.106,36.7,0,1,1,1,3,NONE,52,305
2026-05-28T00:01:49.494,2402490,-0.88,-0.47,0.19,-2.7,11.9,-0.1,-34.7,47.9,18.7,101.11,36.7,0,1,1,1,3,NONE,32,213
2026-05-28T00:01:49.547,2402542,-0.83,-0.47,0.16,-4.8,8.5,-3.7,-34.9,48.0,19.3,101.109,36.7,0,1,1,1,3,NONE,34,220
2026-05-28T00:01:49.595,2402592,-0.78,-0.52,0.16,-15.7,-1.8,-4.7,-34.5,48.2,17.9,101.112,36.7,0,1,1,1,3,NONE,19,137
2026-05-28T00:01:49.644,2402641,-0.78,-0.47,0.18,-26.6,-16.7,-9.8,-35.2,47.8,18.8,101.107,36.7,0,1,1,1,3,NONE,61,176
2026-05-28T00:01:49.696,2402692,-1.17,-0.13,0.3,-19.3,2.5,-7.7,-35.1,47.8,18.8,101.108,36.7,0,1,1,1,3,NONE,47,215
2026-05-28T00:01:49.749,2402744,-0.72,-0.59,0.35,-3.8,7.0,1.4,-35.3,48.5,17.9,101.109,36.7,0,2,1,1,4,NONE,108,486
2026-05-28T00:01:49.796,2402790,-0.96,-0.31,0.42,-21.5,3.5,-3.3,-35.4,48.1,17.8,101.107,36.7,0,2,1,1,4,NONE,93,449
2026-05-28T00:01:49.846,2402842,-0.95,-0.36,0.3,-5.1,-0.9,-10.5,-35.9,49.4,17.5,101.109,36.7,0,2,1,1,4,NONE,102,491
2026-05-28T00:01:49.894,2402890,-0.97,-0.28,0.34,2.8,3.0,-6.5,-36.5,48.6,17.6,101.113,36.69,0,2,1,1,4,NONE,125,694
2026-05-28T00:01:49.947,2402942,-0.93,-0.29,0.3,3.0,0.5,-4.2,-36.4,48.3,17.7,101.11,36.7,0,2,1,1,4,NONE,117,607
2026-05-28T00:01:49.998,2402994,-0.9,-0.25,0.29,5.3,-1.6,-2.4,-37.0,48.0,17.2,101.11,36.7,0,2,1,1,4,NONE,57,337
2026-05-28T00:01:50.046,2403042,-0.89,-0.27,0.28,5.0,-1.2,1.2,-37.0,48.1,17.7,101.109,36.7,0,2,1,1,4,NONE,66,360
2026-05-28T00:01:50.094,2403090,-0.9,-0.24,0.22,7.7,-3.8,3.4,-36.7,47.9,18.5,101.109,36.7,0,2,1,1,4,NONE,48,293
2026-05-28T00:01:50.146,2403143,-0.83,-0.29,0.22,5.9,-6.4,10.1,-37.2,48.4,18.3,101.11,36.7,0,2,1,1,4,NONE,46,229
2026-05-28T00:01:50.196,2403192,-0.9,-0.35,0.16,6.8,-15.1,13.7,-36.3,48.7,18.4,101.111,36.7,0,2,1,1,4,NONE,32,205
2026-05-28T00:01:50.246,2403241,-0.92,-0.3,0.11,12.9,-15.8,16.7,-35.6,49.6,19.6,101.107,36.7,0,2,1,1,4,NONE,37,204
2026-05-28T00:01:50.294,2403289,-0.97,-0.35,0.27,20.4,-11.1,15.7,-35.6,49.6,19.6,101.11,36.69,0,2,1,1,4,NONE,79,383
2026-05-28T00:01:50.347,2403341,-0.92,-0.39,0.24,-9.3,-4.6,10.7,-33.8,49.1,20.7,101.11,36.7,0,1,1,1,3,NONE,102,445
2026-05-28T00:01:50.395,2403392,-1.07,-0.16,0.18,5.0,2.9,11.9,-33.0,49.2,19.1,101.11,36.7,0,1,1,1,3,NONE,118,672
2026-05-28T00:01:50.445,2403443,-0.9,-0.45,0.25,20.1,22.9,15.1,-34.0,49.3,19.6,101.111,36.7,0,2,1,1,4,NONE,184,929
2026-05-28T00:01:50.496,2403492,-0.89,-0.37,0.25,19.1,36.1,19.6,-33.5,49.8,19.9,101.107,36.69,0,2,1,1,4,NONE,80,402
2026-05-28T00:01:50.544,2403540,-0.79,-0.5,0.25,18.5,40.0,16.5,-34.4,49.5,20.3,101.111,36.69,0,2,1,1,4,NONE,57,359
2026-05-28T00:01:50.596,2403592,-0.8,-0.55,0.22,-0.9,27.0,7.5,-34.3,49.7,19.5,101.109,36.7,0,2,1,1,4,NONE,162,1061
2026-05-28T00:01:50.649,2403644,-0.93,-0.46,0.18,-9.3,19.0,7.2,-34.3,50.0,17.7,101.112,36.7,0,2,1,1,4,NONE,128,734
2026-05-28T00:01:50.692,2403690,-0.8,-0.5,0.26,-9.7,9.1,0.0,-34.6,49.8,19.1,101.108,36.69,0,2,1,1,4,NONE,108,615
2026-05-28T00:01:50.745,2403742,-0.81,-0.46,0.29,-12.0,3.4,-1.0,-34.9,50.3,19.3,101.11,36.69,0,2,1,1,4,NONE,99,679
2026-05-28T00:01:50.796,2403790,-0.85,-0.44,0.31,-8.9,4.5,0.3,-34.9,50.6,17.7,101.107,36.7,0,2,1,1,4,NONE,91,471
2026-05-28T00:01:50.846,2403842,-0.83,-0.46,0.32,2.3,-0.2,-10.7,-35.7,51.0,18.0,101.107,36.69,0,2,1,1,4,NONE,111,551
2026-05-28T00:01:50.897,2403894,-0.83,-0.48,0.3,0.8,-3.2,-8.7,-35.3,51.5,17.9,101.109,36.69,0,2,1,1,4,NONE,120,724
2026-05-28T00:01:50.948,2403942,-0.71,-0.48,0.28,-0.4,-3.7,-10.0,-34.9,51.1,16.5,101.106,36.69,0,2,1,1,4,NONE,141,786
2026-05-28T00:01:50.994,2403990,-0.77,-0.52,0.25,0.8,-11.7,-10.8,-35.8,50.9,17.2,101.104,36.69,0,2,1,1,4,NONE,130,894
2026-05-28T00:01:51.046,2404042,-0.73,-0.47,0.45,-19.7,-27.0,-7.9,-35.1,51.1,17.7,101.11,36.7,0,2,1,1,4,NONE,130,723
2026-05-28T00:01:51.096,2404092,-1.24,-0.39,0.37,9.7,-4.3,6.4,-35.4,51.0,19.1,101.108,36.69,0,2,1,1,4,NONE,113,625
2026-05-28T00:01:51.146,2404140,-0.76,-0.63,0.22,-10.3,-11.7,3.9,-35.6,51.5,19.9,101.108,36.69,0,2,1,1,4,NONE,76,305
2026-05-28T00:01:51.196,2404192,-1.05,-0.03,0.25,-6.9,-10.1,3.0,-35.0,51.3,19.7,101.108,36.7,0,2,1,1,4,NONE,76,436
2026-05-28T00:01:51.249,2404244,-0.95,-0.41,0.24,12.1,-2.7,2.5,-34.6,51.8,18.6,101.109,36.7,0,2,1,1,4,NONE,83,415
2026-05-28T00:01:51.294,2404290,-0.86,-0.32,0.21,7.0,-4.9,3.4,-34.2,50.9,19.6,101.108,36.69,0,2,1,1,4,NONE,52,239
2026-05-28T00:01:51.346,2404342,-0.92,-0.28,0.18,6.2,-7.0,4.7,-33.9,51.3,20.1,101.108,36.69,0,2,1,1,4,NONE,51,232
2026-05-28T00:01:51.391,2404390,-0.9,-0.32,0.19,9.8,-1.2,8.7,-33.9,51.6,20.2,101.111,36.7,0,2,1,1,4,NONE,41,185
2026-05-28T00:01:51.447,2404442,-0.87,-0.34,0.15,13.9,-2.7,10.3,-33.5,51.9,20.8,101.109,36.69,0,2,1,1,4,NONE,53,213
2026-05-28T00:01:51.497,2404492,-0.88,-0.42,0.17,2.9,-9.6,12.6,-33.2,51.4,19.7,101.109,36.69,0,2,1,1,4,NONE,17,90
2026-05-28T00:01:51.546,2404540,-0.89,-0.39,0.12,-6.2,-17.3,15.0,-32.4,52.1,20.0,101.106,36.69,0,2,1,1,4,NONE,64,277
2026-05-28T00:01:51.596,2404592,-0.97,-0.31,0.11,-6.6,-18.9,14.9,-31.3,52.4,22.0,101.109,36.69,0,2,1,1,4,NONE,65,310
2026-05-28T00:01:51.648,2404644,-1.04,-0.37,0.29,-0.1,-10.2,7.4,-30.3,52.8,22.1,101.112,36.69,0,1,1,1,3,NONE,78,347
2026-05-28T00:01:51.696,2404690,-1.02,-0.13,0.16,19.0,3.8,3.0,-30.4,52.3,20.5,101.111,36.7,0,1,1,1,3,NONE,77,448
2026-05-28T00:01:51.749,2404744,-0.78,-0.57,0.21,39.6,17.8,2.9,-30.3,52.7,22.6,101.107,36.69,0,2,1,1,4,NONE,118,591
2026-05-28T00:01:51.796,2404790,-0.88,-0.53,0.23,6.7,8.3,3.9,-30.4,51.5,21.9,101.108,36.69,0,2,1,1,4,NONE,65,349
2026-05-28T00:01:51.847,2404842,-0.86,-0.4,0.12,6.3,9.3,4.3,-30.6,52.0,21.7,101.109,36.7,0,1,1,1,3,NONE,58,318
2026-05-28T00:01:51.898,2404893,-0.88,-0.43,0.13,3.0,7.4,0.3,-30.0,51.9,21.6,101.114,36.69,0,1,1,1,3,NONE,56,275
2026-05-28T00:01:51.945,2404942,-0.85,-0.45,0.16,3.5,11.7,-0.7,-30.0,51.8,22.2,101.108,36.69,0,1,1,1,3,NONE,86,480
2026-05-28T00:01:51.995,2404990,-0.86,-0.45,0.11,4.2,14.6,-3.8,-30.6,52.6,21.9,101.108,36.69,0,1,1,1,3,NONE,127,738
2026-05-28T00:01:52.045,2405042,-0.9,-0.41,0.08,5.6,13.2,-5.5,-31.2,52.2,22.0,101.106,36.69,0,1,1,1,3,NONE,144,758
2026-05-28T00:01:52.095,2405092,-0.79,-0.48,0.04,10.2,3.8,-10.5,-31.3,52.1,21.4,101.105,36.69,0,1,1,1,3,NONE,167,766
2026-05-28T00:01:52.147,2405140,-0.77,-0.55,-0.01,-14.9,-17.6,-8.4,-31.5,51.6,22.2,101.108,36.7,0,2,1,1,4,NONE,143,728
2026-05-28T00:01:52.195,2405192,-0.91,-0.36,0.02,-31.5,-32.4,-11.9,-30.8,52.8,21.3,101.109,36.69,0,2,1,1,4,NONE,134,755
2026-05-28T00:01:52.248,2405244,-0.86,-0.37,0.06,-16.1,-29.9,-10.7,-30.3,53.0,22.4,101.109,36.68,0,1,1,1,3,NONE,165,795
2026-05-28T00:01:52.294,2405290,-1.68,-0.28,0.42,-1.3,15.1,0.3,-29.9,53.8,22.0,101.114,36.69,0,1,1,1,3,NONE,112,612
2026-05-28T00:01:52.346,2405342,-0.75,-0.71,0.25,-10.8,14.0,-7.4,-30.0,53.6,21.2,101.108,36.69,0,1,1,1,3,NONE,106,335
2026-05-28T00:01:52.392,2405390,-1.03,-0.06,0.17,-52.7,1.7,7.8,-30.3,54.1,20.4,101.107,36.69,0,1,1,1,3,NONE,67,310
2026-05-28T00:01:52.446,2405442,-0.99,-0.29,0.15,-8.4,11.1,-4.3,-30.2,55.4,19.8,101.109,36.69,0,1,1,1,3,NONE,70,451
2026-05-28T00:01:52.495,2405493,-0.9,-0.29,0.13,-22.3,19.1,13.2,-30.5,55.6,18.7,101.108,36.69,0,1,1,1,3,NONE,51,267
2026-05-28T00:01:52.547,2405542,-0.93,-0.2,-0.05,-19.3,8.9,23.8,-30.4,56.2,18.2,101.108,36.69,0,1,1,1,3,NONE,57,281
2026-05-28T00:01:52.595,2405590,-0.84,-0.13,-0.06,2.0,-2.3,18.6,-29.4,56.4,17.5,101.107,36.69,0,1,1,1,3,NONE,44,251
2026-05-28T00:01:52.646,2405642,-0.83,-0.18,-0.14,34.4,-12.5,21.2,-28.9,56.7,17.8,101.106,36.68,0,1,1,1,3,NONE,55,211
2026-05-28T00:01:52.695,2405692,-0.85,-0.58,0.02,41.7,-16.2,10.3,-28.3,56.8,17.8,101.108,36.68,0,1,1,1,3,NONE,48,252
2026-05-28T00:01:52.746,2405740,-0.74,-0.5,0.09,7.4,-29.5,2.3,-26.8,56.2,18.7,101.107,36.68,0,1,1,1,3,NONE,207,886
2026-05-28T00:01:52.796,2405792,-0.84,-0.42,0.01,-3.1,-37.7,-2.0,-26.5,55.9,20.4,101.108,36.69,0,1,1,1,3,NONE,344,1687
2026-05-28T00:01:52.848,2405844,-0.79,-0.23,-0.01,-7.0,-40.2,0.5,-25.2,56.2,19.8,101.11,36.68,0,1,1,1,3,NONE,542,2315
2026-05-28T00:01:52.895,2405890,-0.69,-0.22,-0.05,24.6,-29.5,4.9,-23.6,56.1,19.3,101.109,36.68,0,1,1,1,3,NONE,345,1259
2026-05-28T00:01:52.946,2405942,-0.63,-0.31,-0.11,33.0,-24.5,-2.7,-23.5,55.4,21.0,101.106,36.68,0,1,1,1,3,NONE,154,1026
2026-05-28T00:01:52.995,2405990,-0.64,-0.24,-0.26,32.8,-32.2,-2.2,-21.9,54.9,20.6,101.111,36.69,0,1,1,1,3,NONE,153,832
2026-05-28T00:01:53.046,2406042,-0.68,-0.22,-0.29,46.4,-29.6,-0.9,-20.9,53.9,20.5,101.111,36.68,0,1,1,1,3,NONE,177,957
2026-05-28T00:01:53.095,2406092,-0.54,-0.43,-0.54,42.4,-29.5,0.9,-19.6,52.9,23.1,101.11,36.68,0,1,1,1,3,NONE,202,992
2026-05-28T00:01:53.146,2406140,-0.94,-0.17,-0.17,19.7,4.9,6.5,-18.2,51.8,23.1,101.108,36.68,0,1,0,1,2,NONE,205,1118
2026-05-28T00:01:53.195,2406192,-0.53,-0.28,-0.47,-1.6,17.2,-0.6,-18.0,51.1,23.3,101.112,36.68,0,1,0,1,2,NONE,228,1142
2026-05-28T00:01:53.245,2406244,-1.42,-0.99,-0.2,-39.6,43.8,-13.9,-17.9,51.1,23.7,101.113,36.69,0,1,0,0,1,NONE,207,1040
2026-05-28T00:01:53.295,2406290,-2.41,-1.68,-0.61,-68.1,-8.5,-48.3,-18.6,52.2,22.3,101.113,36.69,0,1,0,0,1,NONE,203,1040
2026-05-28T00:01:53.345,2406344,-0.46,-0.19,0.6,-127.5,227.6,-13.7,-20.2,54.2,20.2,101.114,36.68,0,1,0,0,1,NONE,138,725
2026-05-28T00:01:53.395,2406390,-0.5,0.12,-0.11,-42.6,174.5,-30.3,-23.0,55.6,16.7,101.112,36.68,0,1,0,0,1,NONE,142,875
2026-05-28T00:01:53.447,2406442,-0.15,-0.19,0.18,-72.3,161.7,-26.9,-26.3,57.2,13.2,101.112,36.69,0,1,0,1,2,NONE,110,517
2026-05-28T00:01:53.497,2406494,-0.47,0.59,0.09,-49.9,176.3,-8.9,-29.0,56.9,9.5,101.11,36.68,0,1,0,1,2,NONE,268,1078
2026-05-28T00:01:53.546,2406542,-0.11,-0.04,0.63,-36.1,194.9,-3.2,-31.5,56.6,5.8,101.11,36.68,0,1,1,1,3,NONE,212,483
2026-05-28T00:01:53.594,2406590,-0.76,0.42,1.56,-102.1,198.2,-33.0,-31.5,56.6,2.5,101.115,36.68,0,1,1,1,3,NONE,371,356
2026-05-28T00:01:53.646,2406642,-0.25,0.57,2.27,-64.9,218.0,-35.8,-31.6,55.7,-3.0,101.118,36.69,0,2,1,1,4,NONE,260,1107
2026-05-28T00:01:53.696,2406692,0.24,-0.28,2.42,-34.7,122.0,4.9,-31.3,54.1,-7.1,101.12,36.68,0,2,1,1,4,NONE,283,1453
2026-05-28T00:01:53.746,2406740,0.34,0.29,1.69,-35.0,67.4,-29.8,-30.1,53.9,-9.3,101.118,36.68,0,2,1,1,4,NONE,531,1357
2026-05-28T00:01:53.796,2406792,-0.24,0.3,0.9,-27.0,37.2,-25.4,-30.0,52.6,-12.2,101.119,36.68,0,2,1,1,4,NONE,289,1104
2026-05-28T00:01:53.848,2406844,0.04,0.15,0.7,-26.7,58.8,-5.3,-30.0,52.2,-14.6,101.116,36.68,0,1,1,1,3,NONE,188,808
2026-05-28T00:01:53.895,2406890,-0.04,0.16,0.66,-21.3,74.3,16.1,-29.3,52.2,-16.3,101.117,36.68,0,1,1,1,3,NONE,222,1132
2026-05-28T00:01:53.946,2406942,0.14,0.32,0.71,-38.8,39.8,23.7,-27.9,51.3,-17.3,101.118,36.68,0,1,1,1,3,NONE,226,1362
2026-05-28T00:01:53.995,2406990,0.18,0.01,0.93,-11.5,6.6,38.0,-26.4,50.7,-18.4,101.115,36.68,0,1,1,1,3,NONE,266,1695
2026-05-28T00:01:54.047,2407042,0.33,0.35,0.76,5.1,-19.1,25.9,-26.2,50.6,-19.2,101.118,36.68,0,1,1,1,3,NONE,303,1954
2026-05-28T00:01:54.097,2407094,0.24,0.38,0.96,28.6,-33.3,27.6,-26.3,51.1,-17.7,101.119,36.68,0,1,1,1,3,NONE,392,3226
2026-05-28T00:01:54.145,2407142,0.17,0.47,0.77,12.0,-49.7,34.7,-26.5,51.5,-17.1,101.121,36.68,0,2,1,1,4,NONE,168,1052
2026-05-28T00:01:54.195,2407190,-0.01,0.76,1.01,27.8,-45.0,20.6,-26.5,51.3,-16.5,101.118,36.68,0,2,1,1,4,NONE,188,1116
2026-05-28T00:01:54.244,2407242,-0.18,0.49,1.06,46.0,-21.1,19.2,-27.0,52.7,-15.1,101.121,36.68,0,2,1,1,4,NONE,198,481
2026-05-28T00:01:54.296,2407292,-0.3,0.12,1.17,23.5,-5.5,14.6,-27.3,53.0,-14.5,101.118,36.67,0,2,1,1,4,NONE,225,417
2026-05-28T00:01:54.346,2407341,-0.22,0.27,0.8,-1.0,-17.0,11.1,-27.2,53.8,-13.2,101.117,36.68,0,2,1,1,4,NONE,102,594
2026-05-28T00:01:54.396,2407392,-0.12,0.24,0.77,3.5,-9.8,-6.4,-27.6,54.2,-13.0,101.119,36.67,0,2,1,1,4,NONE,121,618
2026-05-28T00:01:54.448,2407444,-0.38,-0.08,0.57,52.6,-9.2,-8.2,-27.6,53.9,-13.9,101.118,36.68,0,2,1,1,4,NONE,352,1736
2026-05-28T00:01:54.493,2407490,-0.7,-0.21,1.08,17.3,2.9,2.4,-27.7,54.9,-12.1,101.114,36.68,0,2,1,1,4,NONE,139,786
2026-05-28T00:01:54.547,2407542,-0.38,0.08,1.18,3.1,29.9,-3.1,-27.3,54.8,-12.1,101.115,36.68,0,2,1,1,4,NONE,116,500
2026-05-28T00:01:54.593,2407590,-0.16,0.12,0.8,6.0,19.3,-13.7,-27.4,53.8,-11.6,101.117,36.68,0,2,1,1,4,NONE,77,398
2026-05-28T00:01:54.647,2407642,-0.19,-0.02,0.9,7.4,7.3,-3.1,-28.4,54.9,-12.3,101.118,36.67,0,2,1,1,4,NONE,302,1743
2026-05-28T00:01:54.698,2407694,-0.05,0.06,1.08,-1.4,12.0,2.0,-28.0,54.3,-12.1,101.118,36.67,0,2,1,1,4,NONE,85,602
2026-05-28T00:01:54.746,2407742,-0.06,0.06,0.95,-8.7,7.2,1.8,-27.2,54.3,-13.0,101.114,36.67,0,2,1,1,4,NONE,80,482
2026-05-28T00:01:54.794,2407790,-0.06,0.25,0.99,-2.8,9.6,0.6,-27.7,53.7,-12.5,101.118,36.67,0,2,1,1,4,NONE,156,1008
2026-05-28T00:01:54.842,2407842,-0.05,0.22,0.91,4.1,8.4,2.3,-27.5,53.5,-12.0,101.114,36.67,0,2,1,1,4,NONE,267,1380
2026-05-28T00:01:54.894,2407892,-0.11,0.12,0.9,6.5,1.6,3.2,-27.4,54.0,-12.9,101.115,36.67,0,2,1,1,4,NONE,143,921
2026-05-28T00:01:54.943,2407940,-0.19,0.13,0.96,7.3,2.9,-0.9,-27.8,54.0,-13.1,101.119,36.68,0,2,1,1,4,NONE,240,1212
2026-05-28T00:01:54.993,2407992,-0.18,0.16,0.97,4.9,4.0,1.0,-27.0,54.2,-12.4,101.117,36.68,0,2,1,1,4,NONE,256,1481
2026-05-28T00:01:55.047,2408044,-0.21,0.12,0.94,4.3,3.9,2.7,-27.7,53.6,-13.3,101.114,36.67,0,2,1,1,4,NONE,215,1170
2026-05-28T00:01:55.094,2408090,-0.12,0.09,0.96,5.4,8.1,1.6,-27.7,53.8,-12.9,101.112,36.67,0,2,1,1,4,NONE,210,1097
2026-05-28T00:01:55.147,2408142,-0.13,0.1,0.95,2.7,5.0,1.5,-27.2,54.4,-12.6,101.116,36.67,0,2,1,1,4,NONE,148,755
2026-05-28T00:01:55.194,2408190,-0.1,0.11,0.97,0.8,4.4,1.8,-27.6,54.0,-12.9,101.118,36.67,0,2,1,1,4,NONE,129,642
2026-05-28T00:01:55.246,2408242,-0.1,0.12,0.95,1.9,5.9,1.6,-27.3,53.4,-12.6,101.119,36.67,0,2,1,1,4,NONE,167,1032
2026-05-28T00:01:55.298,2408292,-0.1,0.1,0.96,1.5,3.4,3.6,-27.5,53.3,-12.1,101.117,36.67,0,2,1,1,4,NONE,165,863
2026-05-28T00:01:55.344,2408341,-0.12,0.13,0.94,-3.2,-1.8,2.1,-27.5,53.4,-11.6,101.119,36.67,0,2,1,1,4,NONE,105,526
2026-05-28T00:01:55.397,2408392,-0.13,0.13,0.97,-3.8,-1.9,2.6,-27.2,53.5,-12.6,101.116,36.67,0,2,1,1,4,NONE,62,344
2026-05-28T00:01:55.443,2408444,-0.15,0.16,0.96,-2.2,-0.5,3.6,-27.5,53.8,-13.4,101.12,36.67,0,2,1,1,4,NONE,124,705
2026-05-28T00:01:55.496,2408490,-0.18,0.17,0.96,2.4,1.3,4.0,-27.5,53.5,-13.9,101.116,36.67,0,2,1,1,4,NONE,102,540
2026-05-28T00:01:55.546,2408542,-0.18,0.16,0.93,4.8,2.3,3.6,-27.8,53.6,-12.7,101.12,36.67,0,2,1,1,4,NONE,87,520
2026-05-28T00:01:55.594,2408590,-0.17,0.17,1.0,2.9,-0.7,3.8,-27.6,53.6,-13.8,101.115,36.66,0,2,1,1,4,NONE,75,431
2026-05-28T00:01:55.646,2408642,-0.16,0.2,0.92,5.5,5.7,0.8,-27.1,53.5,-13.0,101.119,36.66,0,2,1,1,4,NONE,78,557
2026-05-28T00:01:55.697,2408694,-0.14,0.11,0.94,9.0,5.5,-0.1,-27.3,53.5,-13.0,101.119,36.67,0,2,1,1,4,NONE,76,401
2026-05-28T00:01:55.746,2408742,-0.1,0.13,0.94,7.9,3.8,0.4,-27.5,53.5,-13.7,101.121,36.67,0,2,1,1,4,NONE,82,436
2026-05-28T00:01:55.794,2408790,-0.14,0.11,1.02,-2.0,1.3,2.0,-27.4,54.1,-12.8,101.12,36.66,0,2,1,1,4,NONE,178,1294
2026-05-28T00:01:55.846,2408842,-0.16,0.17,0.94,6.3,9.2,0.5,-27.4,53.4,-13.2,101.118,36.67,0,2,1,1,4,NONE,88,542
2026-05-28T00:01:55.896,2408892,-0.14,0.1,0.95,6.5,4.9,0.1,-27.3,53.3,-12.3,101.118,36.66,0,2,1,1,4,NONE,87,563
2026-05-28T00:01:55.939,2408940,-0.15,0.16,1.01,3.7,-0.1,0.6,-27.6,53.5,-12.7,101.117,36.66,0,2,1,1,4,NONE,115,783
2026-05-28T00:01:55.997,2408992,-0.14,0.16,0.93,4.8,-0.7,2.7,-27.6,54.2,-13.3,101.113,36.66,0,2,1,1,4,NONE,219,1216
2026-05-28T00:01:56.049,2409044,-0.13,0.11,0.95,1.9,0.9,2.1,-27.7,53.9,-14.1,101.12,36.66,0,2,1,1,4,NONE,133,768
2026-05-28T00:01:56.093,2409090,-0.14,0.16,0.98,4.6,2.6,1.9,-27.7,53.6,-14.2,101.117,36.65,0,2,1,1,4,NONE,89,510
2026-05-28T00:01:56.145,2409142,-0.19,0.13,0.95,5.4,2.4,2.0,-27.7,53.9,-12.7,101.117,36.66,0,2,1,1,4,NONE,181,1183
2026-05-28T00:01:56.194,2409190,-0.12,0.11,0.93,6.3,2.6,0.8,-27.3,53.6,-11.6,101.116,36.66,0,2,1,1,4,NONE,94,704
2026-05-28T00:01:56.247,2409242,-0.18,0.13,0.93,8.7,1.2,1.6,-27.0,53.6,-13.9,101.116,36.66,0,2,1,1,4,NONE,69,373
2026-05-28T00:01:56.293,2409294,-0.15,0.09,1.01,4.6,2.4,2.1,-27.4,54.1,-11.8,101.118,36.66,0,2,1,1,4,NONE,87,513
2026-05-28T00:01:56.343,2409342,-0.18,0.1,0.92,-1.3,2.7,1.6,-27.1,53.9,-12.6,101.121,36.66,0,2,1,1,4,NONE,173,1168
2026-05-28T00:01:56.392,2409390,-0.16,0.12,0.93,-1.1,4.8,0.7,-27.3,53.1,-12.7,101.121,36.65,0,2,1,1,4,NONE,80,536
2026-05-28T00:01:56.447,2409442,-0.12,0.14,0.95,0.8,-0.6,1.6,-28.1,54.2,-13.4,101.118,36.66,0,2,1,1,4,NONE,147,639
2026-05-28T00:01:56.494,2409492,-0.16,0.13,0.98,-0.1,4.5,4.5,-27.8,53.8,-13.5,101.116,36.65,0,2,1,1,4,NONE,77,502
2026-05-28T00:01:56.544,2409540,-0.19,0.16,0.95,-3.5,0.6,1.8,-27.9,53.8,-13.9,101.118,36.66,0,2,1,1,4,NONE,128,806
2026-05-28T00:01:56.596,2409592,-0.13,0.18,0.92,0.0,4.5,-0.5,-28.0,53.9,-13.6,101.119,36.65,0,2,1,1,4,NONE,74,528
2026-05-28T00:01:56.648,2409644,-0.16,0.2,0.94,11.8,1.8,2.3,-27.8,53.6,-13.8,101.116,36.65,0,2,1,1,4,NONE,66,337
2026-05-28T00:01:56.694,2409690,-0.16,0.14,0.98,19.5,-2.1,1.8,-27.8,53.6,-14.2,101.12,36.65,0,2,1,1,4,NONE,85,441
2026-05-28T00:01:56.744,2409742,-0.12,0.08,0.95,20.0,1.5,0.5,-27.8,54.3,-13.2,101.116,36.65,0,2,1,1,4,NONE,165,1007
2026-05-28T00:01:56.794,2409790,-0.16,0.14,0.93,7.7,2.9,-0.1,-27.7,53.7,-11.7,101.116,36.65,0,2,1,1,4,NONE,105,596
2026-05-28T00:01:56.843,2409842,-0.21,0.12,1.14,5.1,0.3,0.1,-27.6,54.2,-11.7,101.118,36.65,0,2,1,1,4,NONE,92,589
2026-05-28T00:01:56.898,2409894,-0.2,0.09,0.88,-0.7,13.1,-0.4,-28.2,54.7,-11.7,101.119,36.65,0,2,1,1,4,NONE,81,382
2026-05-28T00:01:56.943,2409941,-0.18,0.15,0.97,1.8,8.7,0.2,-27.5,54.3,-12.6,101.12,36.65,0,2,1,1,4,NONE,82,462
2026-05-28T00:01:56.993,2409990,-0.12,0.09,0.89,12.8,12.3,1.6,-27.1,53.6,-12.3,101.115,36.65,0,2,1,1,4,NONE,121,691
2026-05-28T00:01:57.047,2410042,-0.11,0.08,0.95,9.2,7.3,1.3,-27.4,54.2,-12.1,101.117,36.65,0,2,1,1,4,NONE,413,2074
2026-05-28T00:01:57.093,2410090,-0.17,0.21,0.9,17.2,15.0,0.9,-27.3,53.9,-12.2,101.119,36.65,0,2,1,1,4,NONE,138,694
2026-05-28T00:01:57.143,2410142,-0.1,0.07,0.96,17.6,12.8,1.2,-27.7,54.5,-11.0,101.118,36.64,0,2,1,1,4,NONE,85,482
2026-05-28T00:01:57.196,2410192,-0.06,-0.0,1.08,4.7,4.5,-2.0,-27.5,54.8,-11.4,101.115,36.65,0,2,1,1,4,NONE,69,411
2026-05-28T00:01:57.243,2410240,0.0,-0.02,1.04,-5.6,-0.5,-1.2,-27.2,54.0,-11.4,101.114,36.65,0,2,1,1,4,NONE,82,465
2026-05-28T00:01:57.293,2410292,-0.03,0.11,0.86,10.9,1.0,2.1,-27.8,54.1,-11.8,101.117,36.66,0,2,1,1,4,NONE,66,349
2026-05-28T00:01:57.348,2410344,-0.05,0.23,0.91,12.1,-12.6,1.9,-27.7,54.9,-11.1,101.118,36.65,0,2,1,1,4,NONE,84,445
2026-05-28T00:01:57.393,2410390,-0.15,0.39,1.13,37.5,-39.3,10.8,-27.7,54.9,-9.2,101.118,36.65,0,2,1,1,4,NONE,97,745
2026-05-28T00:01:57.444,2410442,-0.2,-0.09,1.22,33.4,-52.6,23.8,-28.4,55.5,-9.6,101.12,36.64,0,2,1,1,4,NONE,82,471
2026-05-28T00:01:57.494,2410490,-0.34,-0.04,1.07,36.6,-55.6,11.4,-28.4,56.3,-7.3,101.12,36.65,0,2,1,1,4,NONE,105,534
2026-05-28T00:01:57.543,2410542,-0.31,-0.04,0.96,47.4,-45.8,6.7,-28.1,56.8,-5.6,101.117,36.65,0,2,1,1,4,NONE,73,445
2026-05-28T00:01:57.597,2410594,-0.26,-0.1,1.21,43.3,-52.9,8.0,-28.5,56.6,-4.9,101.12,36.65,0,2,1,1,4,NONE,127,592
2026-05-28T00:01:57.645,2410642,-0.48,-0.1,0.95,33.3,-31.2,-3.7,-29.3,57.3,-2.9,101.119,36.64,0,2,1,1,4,NONE,173,1033
2026-05-28T00:01:57.694,2410690,-0.46,-0.01,0.94,27.3,-27.6,-3.8,-29.1,56.8,-2.2,101.118,36.65,0,2,1,1,4,NONE,94,509
2026-05-28T00:01:57.743,2410742,-0.49,-0.15,1.04,39.4,-2.8,-7.9,-29.2,57.2,0.0,101.118,36.65,0,2,1,1,4,NONE,92,443
2026-05-28T00:01:57.795,2410790,-0.45,-0.15,0.72,16.7,11.3,-13.9,-29.6,57.2,-0.4,101.12,36.65,0,2,1,1,4,NONE,66,314
2026-05-28T00:01:57.844,2410842,-0.47,0.08,0.67,56.6,37.4,-11.0,-30.4,57.1,-0.8,101.113,36.64,0,2,1,1,4,NONE,89,462
2026-05-28T00:01:57.895,2410892,-0.31,-0.34,0.79,16.6,63.8,-14.6,-31.1,57.3,0.0,101.113,36.64,0,2,1,1,4,NONE,91,464
2026-05-28T00:01:57.943,2410940,-0.42,0.09,0.74,12.3,55.4,-24.7,-31.7,57.4,-0.6,101.117,36.65,0,2,1,1,4,NONE,147,609
2026-05-28T00:01:57.995,2410992,-0.3,-0.15,0.81,-12.1,52.7,-29.5,-32.5,56.6,-0.2,101.116,36.64,0,2,1,1,4,NONE,138,791
2026-05-28T00:01:58.045,2411044,-0.27,-0.14,0.78,18.4,42.9,-19.7,-33.1,56.8,-2.1,101.114,36.64,0,2,1,1,4,NONE,123,714
2026-05-28T00:01:58.095,2411090,-0.22,-0.26,0.72,28.8,39.2,-17.9,-33.6,56.4,-0.7,101.115,36.64,0,2,1,1,4,NONE,321,1498
2026-05-28T00:01:58.144,2411144,-0.39,-0.22,0.77,42.2,25.1,-12.3,-34.1,56.6,-0.6,101.113,36.63,0,2,1,1,4,NONE,223,1265
2026-05-28T00:01:58.197,2411193,-0.35,-0.53,0.85,26.1,29.3,-3.8,-34.5,56.2,-0.7,101.111,36.63,0,2,1,1,4,NONE,284,1476
2026-05-28T00:01:58.247,2411242,-0.27,-0.34,0.82,30.9,23.2,-15.4,-35.1,56.2,-0.5,101.117,36.63,0,2,1,1,4,NONE,111,603
2026-05-28T00:01:58.299,2411293,-0.12,-0.41,0.97,46.7,48.5,-14.6,-35.7,56.0,0.6,101.111,36.64,0,2,1,1,4,NONE,86,539
2026-05-28T00:01:58.343,2411342,-0.01,-0.78,0.91,45.7,45.6,-2.6,-36.1,55.6,1.6,101.114,36.63,0,2,1,1,4,NONE,82,693
2026-05-28T00:01:58.394,2411390,-0.14,-0.86,0.83,14.8,32.3,5.5,-35.7,56.0,0.5,101.114,36.64,0,2,1,1,4,NONE,141,737
2026-05-28T00:01:58.442,2411442,-0.2,-0.71,0.88,4.3,38.9,18.9,-35.1,56.1,-1.6,101.114,36.63,0,2,1,1,4,NONE,185,871
2026-05-28T00:01:58.497,2411492,-0.03,-0.66,0.82,-12.8,14.5,38.0,-34.5,56.0,-0.6,101.116,36.64,0,2,1,1,4,NONE,84,602
2026-05-28T00:01:58.546,2411540,0.01,-0.53,0.45,-37.6,-32.5,47.6,-33.2,57.5,-1.6,101.111,36.63,0,2,1,1,4,NONE,136,682
2026-05-28T00:01:58.597,2411592,-0.07,-0.71,0.25,-102.4,-93.0,59.5,-32.2,57.6,-1.6,101.112,36.63,0,2,1,1,4,NONE,112,382
2026-05-28T00:01:58.648,2411644,-0.5,0.06,0.83,-101.6,-69.9,49.6,-30.9,57.8,-4.5,101.113,36.63,0,2,1,1,4,NONE,94,499
2026-05-28T00:01:58.694,2411690,-0.35,0.22,1.07,-23.5,-29.4,37.0,-30.4,57.8,-6.1,101.116,36.63,0,2,1,1,4,NONE,84,433
2026-05-28T00:01:58.747,2411742,-0.29,-0.22,0.95,-22.4,-36.4,29.8,-29.6,57.8,-5.2,101.112,36.63,0,2,1,1,4,NONE,129,705
2026-05-28T00:01:58.789,2411790,-0.33,-0.18,1.18,-24.7,-22.9,19.7,-28.4,58.4,-6.2,101.115,36.63,0,2,1,1,4,NONE,111,651
2026-05-28T00:01:58.846,2411842,-0.22,0.01,1.14,-57.7,-22.8,4.6,-29.1,58.0,-6.6,101.114,36.63,0,1,1,1,3,NONE,164,1165
2026-05-28T00:01:58.892,2411894,-0.3,0.16,1.12,-56.6,-22.9,-1.7,-29.2,57.6,-7.8,101.112,36.63,0,1,1,1,3,NONE,149,937
2026-05-28T00:01:58.945,2411942,-0.04,-0.06,1.07,-101.0,-46.2,24.2,-30.1,57.2,-10.3,101.114,36.64,0,1,1,1,3,NONE,131,672
2026-05-28T00:01:58.994,2411990,-0.21,0.41,0.83,-111.5,-74.3,45.6,-30.4,56.5,-12.6,101.112,36.63,0,1,1,1,3,NONE,154,1026
2026-05-28T00:01:59.047,2412042,-0.45,0.5,0.66,-72.6,-64.4,39.3,-30.6,55.4,-12.8,101.113,36.63,0,1,1,1,3,NONE,76,500
2026-05-28T00:01:59.097,2412092,-0.58,0.46,0.61,-53.2,-63.3,44.3,-30.5,55.2,-14.9,101.112,36.63,0,1,1,1,3,NONE,74,367
2026-05-28T00:01:59.146,2412141,-0.66,0.28,0.61,-25.1,-51.7,59.8,-30.0,55.2,-14.1,101.114,36.63,0,1,0,1,2,NONE,135,592
2026-05-28T00:01:59.195,2412192,-0.79,0.43,0.48,-6.3,-51.3,59.3,-29.5,55.1,-15.3,101.116,36.64,0,1,0,1,2,NONE,230,1068
2026-05-28T00:01:59.248,2412244,-0.73,0.32,0.62,14.9,-28.7,61.8,-28.5,55.9,-13.4,101.116,36.63,0,1,0,0,1,NONE,366,1660
2026-05-28T00:01:59.294,2412290,-0.68,0.53,0.56,67.3,-10.5,62.2,-27.2,56.7,-12.4,101.116,36.63,0,1,0,0,1,NONE,190,1115
2026-05-28T00:01:59.344,2412342,-0.59,0.08,0.6,78.5,-13.4,72.2,-26.3,58.2,-12.1,101.116,36.64,0,1,0,1,2,NONE,278,1612
2026-05-28T00:01:59.394,2412390,-0.97,0.45,0.37,95.0,-0.9,50.2,-24.1,59.7,-9.8,101.112,36.63,0,1,0,1,2,NONE,141,1028
2026-05-28T00:01:59.445,2412443,-0.65,-0.12,0.4,64.4,-6.4,35.0,-22.9,60.6,-6.0,101.113,36.63,0,1,1,1,3,NONE,78,465
2026-05-28T00:01:59.494,2412494,-0.73,-0.14,0.55,53.7,-6.2,21.8,-22.1,61.2,-5.9,101.114,36.63,0,1,1,1,3,NONE,56,285
2026-05-28T00:01:59.546,2412542,-0.66,-0.15,0.47,56.2,1.6,12.5,-21.4,61.5,-4.0,101.113,36.63,0,1,0,1,2,NONE,50,252
2026-05-28T00:01:59.593,2412590,-0.63,-0.36,0.55,59.3,-2.1,20.8,-20.5,62.0,-1.2,101.108,36.62,0,1,0,1,2,NONE,45,191
2026-05-28T00:01:59.646,2412643,-0.72,-0.39,0.54,59.8,-10.8,24.5,-20.3,61.5,1.1,101.114,36.63,0,1,1,1,3,NONE,77,369
2026-05-28T00:01:59.695,2412692,-0.71,-0.44,0.59,66.0,-19.0,21.2,-19.8,61.1,1.6,101.114,36.63,0,1,1,1,3,NONE,93,551
2026-05-28T00:01:59.744,2412741,-0.72,-0.55,0.49,55.2,-38.2,21.4,-18.7,61.0,2.3,101.115,36.63,0,1,1,1,3,NONE,64,407
2026-05-28T00:01:59.797,2412792,-0.8,-0.37,0.39,52.4,-37.3,25.1,-18.1,61.4,6.1,101.116,36.63,0,1,1,1,3,NONE,72,501
2026-05-28T00:01:59.845,2412844,-0.72,-0.63,0.33,52.7,-34.9,28.2,-16.4,60.3,7.6,101.114,36.63,0,1,1,1,3,NONE,68,444
2026-05-28T00:01:59.893,2412890,-0.87,-0.52,0.26,32.2,-30.5,7.8,-15.5,59.5,9.6,101.114,36.62,0,1,1,1,3,NONE,45,297
2026-05-28T00:01:59.945,2412942,-0.93,-0.65,0.25,44.4,-0.4,-15.4,-14.1,59.5,10.6,101.117,36.63,0,1,0,1,2,NONE,85,271
2026-05-28T00:01:59.994,2412990,-1.16,-0.87,0.34,50.4,40.5,-41.6,-15.1,58.5,11.4,101.118,36.63,0,1,0,1,2,NONE,101,460
2026-05-28T00:02:00.043,2413042,-1.36,-0.86,0.5,22.2,75.2,-65.4,-16.7,58.1,13.0,101.115,36.63,0,1,0,0,1,NONE,65,360
2026-05-28T00:02:00.097,2413092,-1.31,-1.09,0.53,4.8,58.5,-22.6,-20.3,58.4,13.0,101.113,36.63,0,1,0,0,1,NONE,113,491
2026-05-28T00:02:00.144,2413141,-1.02,-0.77,0.24,-13.1,46.6,-29.2,-21.7,57.6,13.0,101.113,36.63,0,1,1,1,3,NONE,101,486
2026-05-28T00:02:00.196,2413192,-0.8,-0.61,0.3,-15.9,35.2,-25.9,-23.5,58.2,11.9,101.112,36.63,0,1,1,1,3,NONE,163,811
2026-05-28T00:02:00.242,2413244,-0.77,-0.46,0.35,-14.0,20.6,-21.1,-24.3,58.5,11.4,101.11,36.63,0,1,1,1,3,NONE,166,884
2026-05-28T00:02:00.293,2413290,-0.74,-0.39,0.33,-9.6,2.0,-15.7,-26.2,59.0,11.2,101.112,36.62,0,1,1,1,3,NONE,194,1046
2026-05-28T00:02:00.347,2413344,-0.84,-0.31,0.45,-7.1,1.4,-16.1,-27.2,59.4,10.6,101.113,36.63,0,1,1,1,3,NONE,93,610
2026-05-28T00:02:00.393,2413390,-0.83,-0.33,0.43,-5.4,-0.9,-11.1,-28.1,59.2,8.7,101.11,36.63,0,1,1,1,3,NONE,91,480
2026-05-28T00:02:00.443,2413442,-0.76,-0.38,0.42,-2.5,-0.4,-4.8,-28.4,59.8,10.2,101.11,36.63,0,1,1,1,3,NONE,113,627
2026-05-28T00:02:00.498,2413494,-0.75,-0.31,0.4,-8.9,-9.6,-1.0,-29.0,59.6,8.8,101.107,36.62,0,1,1,1,3,NONE,48,268
2026-05-28T00:02:00.545,2413542,-0.71,-0.23,0.3,-5.2,-15.1,-4.3,-28.8,59.2,7.4,101.113,36.63,0,1,1,1,3,NONE,64,343
2026-05-28T00:02:00.594,2413590,-0.68,-0.25,0.3,1.3,-18.6,-3.2,-29.2,60.1,8.5,101.109,36.63,0,1,1,1,3,NONE,59,295
2026-05-28T00:02:00.647,2413642,-0.69,-0.22,0.34,4.6,-21.1,-0.1,-30.0,60.1,8.0,101.108,36.62,0,1,1,1,3,NONE,40,267
2026-05-28T00:02:00.696,2413692,-0.67,-0.36,0.36,-4.3,-27.8,9.3,-29.4,60.3,8.3,101.111,36.62,0,1,1,1,3,NONE,64,362
2026-05-28T00:02:00.743,2413740,-0.75,-0.21,0.27,-11.2,-30.0,16.2,-28.7,60.7,8.7,101.111,36.63,0,1,0,1,2,NONE,63,389
2026-05-28T00:02:00.796,2413792,-0.79,-0.16,0.22,-17.8,-33.3,22.1,-28.2,60.9,8.3,101.112,36.62,0,1,0,1,2,NONE,86,485
2026-05-28T00:02:00.843,2413844,-0.9,-0.12,0.16,-3.1,-30.9,16.4,-27.5,60.4,7.2,101.107,36.61,0,1,1,1,3,NONE,87,474
2026-05-28T00:02:00.896,2413892,-0.9,-0.23,0.19,12.2,-23.6,18.7,-27.5,60.4,7.2,101.107,36.61,0,1,1,1,3,NONE,82,554
2026-05-28T00:02:00.949,2413944,-0.89,-0.26,0.11,17.0,-29.7,13.5,-24.9,61.2,9.0,101.109,36.61,0,1,1,1,3,NONE,73,482
2026-05-28T00:02:00.994,2413992,-0.92,-0.22,0.08,25.9,-27.6,12.8,-24.1,61.0,8.8,101.108,36.61,0,1,1,1,3,NONE,84,460
2026-05-28T00:02:01.041,2414040,-0.91,-0.16,0.0,44.0,-25.0,7.9,-23.8,60.7,9.9,101.11,36.62,0,1,0,1,2,NONE,70,381
2026-05-28T00:02:01.093,2414092,-0.88,-0.19,0.06,70.6,-13.7,4.8,-23.3,59.8,12.5,101.111,36.61,0,1,0,1,2,NONE,101,419
2026-05-28T00:02:01.149,2414144,-0.91,-0.93,0.2,42.7,-21.4,10.0,-22.6,59.2,12.9,101.106,36.61,0,1,0,0,1,NONE,68,353
2026-05-28T00:02:01.193,2414190,-0.84,-0.43,0.08,-2.1,-33.2,18.0,-21.7,60.1,13.8,101.106,36.61,0,1,0,0,1,NONE,71,319
2026-05-28T00:02:01.247,2414242,-0.94,-0.24,-0.01,3.2,-27.6,3.3,-21.6,59.5,13.5,101.106,36.61,0,1,1,1,3,NONE,41,236
2026-05-28T00:02:01.293,2414290,-0.9,-0.43,0.02,17.6,-9.3,2.5,-20.8,59.0,14.6,101.105,36.61,0,1,1,1,3,NONE,49,203
2026-05-28T00:02:01.343,2414342,-0.84,-0.5,0.03,7.1,-15.3,4.3,-20.8,59.2,13.5,101.107,36.61,0,1,1,1,3,NONE,59,242
2026-05-28T00:02:01.395,2414394,-0.93,-0.37,-0.01,3.2,-17.7,3.1,-20.0,58.7,14.5,101.111,36.61,0,1,1,1,3,NONE,38,213
2026-05-28T00:02:01.447,2414442,-0.88,-0.46,-0.02,0.7,-10.3,-0.1,-19.7,58.9,15.3,101.107,36.6,0,1,0,1,2,NONE,47,222
2026-05-28T00:02:01.493,2414490,-0.91,-0.44,-0.05,-3.1,-10.7,0.6,-19.6,59.2,15.5,101.109,36.61,0,1,0,1,2,NONE,51,255
2026-05-28T00:02:01.543,2414542,-0.92,-0.42,-0.08,-2.9,-6.7,-0.2,-19.8,59.3,14.0,101.11,36.6,0,1,0,0,1,NONE,54,257
2026-05-28T00:02:01.594,2414592,-0.95,-0.4,-0.08,-0.9,-2.9,-0.3,-20.0,59.4,14.6,101.107,36.6,0,1,0,0,1,NONE,59,328
2026-05-28T00:02:01.644,2414640,-0.93,-0.41,-0.07,7.0,3.4,-0.6,-19.7,59.5,14.4,101.109,36.6,0,1,0,1,2,NONE,120,630
2026-05-28T00:02:01.693,2414692,-0.92,-0.4,-0.08,10.1,7.1,-0.7,-19.9,59.4,15.2,101.109,36.61,0,1,0,1,2,NONE,83,458
2026-05-28T00:02:01.747,2414744,-0.9,-0.45,-0.09,12.2,5.3,-1.8,-20.1,59.6,15.7,101.108,36.6,0,1,0,1,2,NONE,76,429
2026-05-28T00:02:01.792,2414790,-0.91,-0.45,-0.09,-3.6,-4.6,-3.5,-20.3,59.4,15.6,101.109,36.6,0,1,0,1,2,NONE,99,656
2026-05-28T00:02:01.847,2414842,-0.9,-0.44,-0.08,-14.3,-7.3,-4.2,-20.5,59.5,14.1,101.108,36.6,0,1,0,0,1,NONE,129,744
2026-05-28T00:02:01.892,2414890,-0.92,-0.39,-0.1,-14.2,-8.7,-3.4,-20.0,59.5,13.4,101.11,36.6,0,1,0,0,1,NONE,102,584
2026-05-28T00:02:01.942,2414942,-0.93,-0.36,-0.08,-11.3,-6.3,-4.8,-20.3,60.0,13.0,101.108,36.6,0,1,0,0,1,NONE,113,684
2026-05-28T00:02:01.997,2414994,-0.9,-0.44,-0.07,-10.3,-4.0,-6.0,-20.8,60.0,14.1,101.11,36.59,0,1,0,0,1,NONE,64,387
2026-05-28T00:02:02.046,2415042,-0.93,-0.41,-0.1,-19.2,-9.2,-7.4,-20.7,60.6,11.5,101.111,36.59,0,1,0,0,1,NONE,199,1120
2026-05-28T00:02:02.097,2415094,-0.93,-0.38,-0.12,-23.1,-9.1,-8.2,-21.1,60.4,11.7,101.109,36.6,0,1,0,0,1,NONE,113,717
2026-05-28T00:02:02.145,2415140,-0.92,-0.38,-0.13,-29.9,-10.9,-8.6,-21.4,61.1,10.7,101.106,36.6,0,1,0,0,1,NONE,94,587
2026-05-28T00:02:02.196,2415194,-0.94,-0.36,-0.13,-35.4,-11.2,-8.2,-20.7,61.0,9.1,101.106,36.59,0,1,0,0,1,NONE,83,649
2026-05-28T00:02:02.244,2415240,-0.96,-0.34,-0.12,-35.3,-12.0,-8.4,-21.5,62.1,8.9,101.11,36.59,0,1,0,0,1,NONE,57,333
2026-05-28T00:02:02.294,2415290,-0.96,-0.34,-0.12,-33.1,-10.1,-9.2,-21.7,62.4,8.2,101.109,36.6,0,1,0,0,1,NONE,59,288
2026-05-28T00:02:02.344,2415342,-0.96,-0.33,-0.12,-37.4,-10.1,-9.5,-22.0,62.1,5.7,101.109,36.59,0,1,0,0,1,NONE,75,449
2026-05-28T00:02:02.397,2415394,-0.97,-0.29,-0.12,-35.2,-7.6,-9.5,-22.4,62.6,5.0,101.109,36.59,0,1,0,0,1,NONE,92,622
2026-05-28T00:02:02.445,2415442,-0.95,-0.3,-0.12,-34.9,-7.0,-7.1,-22.5,62.3,4.6,101.112,36.6,0,1,0,0,1,NONE,84,463
2026-05-28T00:02:02.494,2415490,-0.97,-0.26,-0.14,-34.5,-6.9,-4.5,-23.0,62.5,2.9,101.11,36.59,0,1,0,0,1,NONE,84,469
2026-05-28T00:02:02.544,2415542,-0.98,-0.23,-0.12,-23.0,-3.2,-3.1,-23.1,62.4,1.2,101.112,36.59,0,1,0,0,1,NONE,64,312
2026-05-28T00:02:02.595,2415592,-0.98,-0.24,-0.13,-10.2,0.1,0.8,-22.9,62.7,0.5,101.11,36.59,0,1,0,0,1,NONE,63,369
2026-05-28T00:02:02.645,2415641,-1.0,-0.25,-0.13,3.6,5.6,6.4,-23.0,62.6,0.6,101.11,36.59,0,0,0,0,0,NONE,78,480
2026-05-28T00:02:02.698,2415692,-0.99,-0.21,-0.12,17.7,8.7,11.7,-22.6,63.5,0.9,101.107,36.59,0,0,0,0,0,NONE,100,630
2026-05-28T00:02:02.745,2415744,-0.97,-0.22,-0.13,34.1,15.4,13.4,-22.7,62.7,2.6,101.107,36.59,0,1,0,0,1,NONE,151,875
2026-05-28T00:02:02.792,2415790,-0.97,-0.25,-0.14,52.4,20.7,15.3,-22.0,62.6,1.6,101.109,36.59,0,1,0,0,1,NONE,140,879
2026-05-28T00:02:02.845,2415842,-0.95,-0.3,-0.12,67.5,25.8,17.0,-21.9,63.0,3.7,101.108,36.58,0,1,0,0,1,NONE,79,496
2026-05-28T00:02:02.892,2415890,-0.94,-0.33,-0.11,76.3,26.4,16.4,-21.0,62.8,7.1,101.108,36.58,0,1,0,0,1,NONE,90,635
2026-05-28T00:02:02.945,2415942,-0.92,-0.38,-0.13,77.7,26.7,16.1,-20.9,61.3,7.3,101.109,36.59,0,1,0,0,1,NONE,282,1603
2026-05-28T00:02:02.997,2415994,-0.93,-0.37,-0.14,74.9,26.9,16.1,-20.6,61.5,10.2,101.107,36.58,0,1,0,0,1,NONE,254,1146
2026-05-28T00:02:03.045,2416042,-0.94,-0.42,-0.13,67.5,24.5,16.2,-20.6,60.6,13.0,101.109,36.58,0,1,0,0,1,NONE,160,837
2026-05-28T00:02:03.093,2416090,-0.91,-0.43,-0.13,64.1,25.1,0.1,-20.8,59.5,14.3,101.105,36.58,0,1,0,0,1,NONE,126,675
2026-05-28T00:02:03.145,2416142,-0.92,-0.45,-0.11,52.4,23.9,13.8,-20.6,59.0,15.1,101.109,36.58,0,1,0,0,1,NONE,67,502
2026-05-28T00:02:03.192,2416192,-0.9,-0.46,-0.1,42.1,27.3,11.4,-20.1,57.3,17.5,101.11,36.58,0,1,0,0,1,NONE,78,501
2026-05-28T00:02:03.245,2416240,-0.93,-0.43,-0.11,30.5,20.3,9.9,-20.1,57.3,17.0,101.109,36.58,0,1,0,0,1,NONE,131,706
2026-05-28T00:02:03.296,2416292,-0.91,-0.43,-0.13,24.2,16.9,8.6,-20.4,56.9,18.3,101.107,36.58,0,1,0,0,1,NONE,184,1276
2026-05-28T00:02:03.346,2416344,-0.9,-0.44,-0.12,15.7,12.6,7.0,-20.4,56.8,19.4,101.109,36.58,0,1,0,0,1,NONE,109,624
