pc_timestamp_iso,ms,ax,ay,az,gx,gy,gz,mx,my,mz,press,baro_t,prox,cr,cg,cb,light,gesture,mic,p2p
2026-05-27T23:35:22.530,815484,0.89,-0.35,-0.2,-61.7,14.7,11.2,-8.9,5.3,22.7,101.12,35.98,0,1,0,0,1,NONE,160,824
2026-05-27T23:35:22.559,815520,0.87,-0.35,-0.18,-49.0,15.4,15.0,-9.4,6.7,24.7,101.12,35.99,0,1,1,1,3,NONE,63,313
2026-05-27T23:35:22.623,815571,0.89,-0.36,-0.18,-44.0,18.9,20.0,-9.9,7.6,25.3,101.122,36.01,0,1,1,1,3,NONE,59,303
2026-05-27T23:35:22.673,815623,0.9,-0.32,-0.17,-42.2,14.8,23.4,-10.4,9.1,25.4,101.119,36.0,0,1,0,0,1,NONE,72,370
2026-05-27T23:35:22.728,815675,0.94,-0.32,-0.11,-35.6,18.3,25.8,-11.6,9.8,26.8,101.122,36.01,0,1,0,0,1,NONE,72,475
2026-05-27T23:35:22.771,815723,0.92,-0.23,-0.14,-31.6,3.6,26.0,-12.3,10.8,27.5,101.125,36.02,0,1,0,0,1,NONE,75,532
2026-05-27T23:35:22.817,815771,0.9,-0.23,-0.13,-16.8,6.8,28.7,-12.3,11.1,27.6,101.124,36.02,0,1,0,0,1,NONE,65,363
2026-05-27T23:35:22.868,815823,0.93,-0.45,-0.41,-9.0,19.7,13.8,-12.8,11.6,28.0,101.122,36.03,0,1,0,0,1,NONE,43,266
2026-05-27T23:35:22.916,815873,1.08,-0.12,-0.23,-44.6,8.4,13.6,-12.9,11.7,28.0,101.118,36.04,0,1,0,0,1,NONE,35,136
2026-05-27T23:35:22.964,815921,0.93,-0.2,-0.31,-1.3,6.4,15.0,-13.6,12.5,28.6,101.121,36.04,0,1,0,1,2,NONE,24,136
2026-05-27T23:35:23.024,815973,0.94,-0.06,-0.3,5.1,6.3,11.3,-13.1,13.3,29.9,101.117,36.05,0,1,0,1,2,NONE,33,127
2026-05-27T23:35:23.073,816025,0.98,-0.11,-0.19,-13.2,8.5,15.6,-13.5,13.5,28.7,101.121,36.04,0,1,0,1,2,NONE,32,126
2026-05-27T23:35:23.122,816071,0.96,-0.12,-0.25,-25.1,6.5,14.0,-13.8,14.2,27.4,101.12,36.05,0,1,0,1,2,NONE,25,144
2026-05-27T23:35:23.172,816123,0.93,-0.11,-0.21,-17.8,4.3,13.1,-13.8,14.9,29.4,101.12,36.05,0,1,1,1,3,NONE,30,167
2026-05-27T23:35:23.221,816171,0.91,-0.14,-0.22,-31.9,10.1,11.8,-14.5,16.1,28.9,101.123,36.06,0,1,1,1,3,NONE,30,149
2026-05-27T23:35:23.266,816223,0.91,-0.1,-0.2,-27.3,7.2,6.8,-14.6,16.9,28.8,101.123,36.06,0,1,1,1,3,NONE,34,135
2026-05-27T23:35:23.328,816275,0.96,-0.15,-0.14,-29.6,11.0,-0.8,-14.6,17.2,29.6,101.123,36.06,0,1,1,1,3,NONE,31,146
2026-05-27T23:35:23.366,816323,0.92,-0.16,-0.16,-37.4,4.9,-3.7,-15.0,18.8,30.2,101.12,36.06,0,1,1,1,3,NONE,37,157
2026-05-27T23:35:23.412,816371,0.92,-0.17,-0.13,-48.8,3.0,0.3,-14.5,20.0,30.8,101.124,36.06,0,1,1,1,3,NONE,22,120
2026-05-27T23:35:23.474,816423,1.0,-0.17,-0.18,-41.9,9.5,-3.7,-14.6,21.6,31.2,101.122,36.07,0,2,1,2,5,NONE,24,108
2026-05-27T23:35:23.523,816473,1.07,-0.13,-0.53,-26.4,21.4,3.5,-15.1,22.9,31.1,101.122,36.06,0,2,1,2,5,NONE,25,167
2026-05-27T23:35:23.571,816522,1.01,-0.38,-0.32,-39.5,-2.5,-0.9,-14.9,23.6,31.2,101.125,36.08,0,2,1,2,5,NONE,33,128
2026-05-27T23:35:23.624,816573,0.75,-0.17,-0.26,-53.2,5.4,-0.5,-15.0,25.7,31.2,101.12,36.06,0,2,1,2,5,NONE,25,141
2026-05-27T23:35:23.677,816625,0.95,-0.26,-0.26,-19.4,7.2,2.7,-14.6,27.5,30.5,101.121,36.07,0,1,1,1,3,NONE,31,130
2026-05-27T23:35:23.716,816671,0.89,-0.29,-0.25,-7.9,-2.4,-2.3,-14.6,27.8,32.4,101.12,36.07,0,1,1,1,3,NONE,29,165
2026-05-27T23:35:23.773,816723,0.84,-0.33,-0.22,-26.9,-0.3,-3.6,-14.0,28.4,32.1,101.12,36.07,0,1,1,1,3,NONE,31,157
2026-05-27T23:35:23.823,816771,0.87,-0.31,-0.19,-19.9,5.1,1.0,-13.8,28.9,31.5,101.121,36.07,0,1,1,1,3,NONE,30,101
2026-05-27T23:35:23.864,816823,0.87,-0.3,-0.2,-13.4,9.2,7.9,-14.2,29.8,30.4,101.122,36.07,0,1,0,1,2,NONE,36,223
2026-05-27T23:35:23.926,816875,0.89,-0.35,-0.18,-12.3,10.7,12.4,-14.1,30.2,31.6,101.12,36.07,0,1,0,1,2,NONE,64,342
2026-05-27T23:35:23.972,816923,0.89,-0.3,-0.2,-11.5,11.3,13.0,-14.1,30.6,30.9,101.124,36.08,0,1,1,1,3,NONE,108,493
2026-05-27T23:35:24.021,816971,0.94,-0.32,-0.12,-7.2,7.9,13.4,-14.7,30.8,30.7,101.119,36.08,0,1,1,1,3,NONE,58,199
2026-05-27T23:35:24.073,817023,0.89,-0.29,-0.11,-13.7,3.3,16.1,-14.6,31.7,30.1,101.121,36.08,0,1,0,1,2,NONE,87,465
2026-05-27T23:35:24.121,817073,0.93,-0.17,-0.12,13.2,2.1,18.4,-15.0,31.9,31.9,101.124,36.08,0,1,0,1,2,NONE,88,434
2026-05-27T23:35:24.170,817122,1.06,-0.39,-0.29,27.3,13.1,10.7,-14.6,31.3,30.8,101.121,36.08,0,1,1,1,3,NONE,66,261
2026-05-27T23:35:24.217,817173,1.04,-0.2,-0.23,-25.3,12.8,12.5,-15.2,31.0,31.8,101.121,36.07,0,1,1,1,3,NONE,53,289
2026-05-27T23:35:24.280,817225,0.96,-0.1,-0.27,28.3,0.7,15.1,-14.8,31.3,30.4,101.123,36.08,0,1,1,1,3,NONE,78,489
2026-05-27T23:35:24.314,817271,0.91,-0.08,-0.26,24.6,7.7,10.7,-15.2,31.2,30.5,101.118,36.07,0,1,1,1,3,NONE,81,378
2026-05-27T23:35:24.374,817323,1.03,-0.08,-0.24,18.0,0.2,7.4,-14.9,30.1,31.0,101.125,36.08,0,1,1,1,3,NONE,128,764
2026-05-27T23:35:24.424,817371,0.96,-0.18,-0.14,2.4,-4.7,5.5,-14.8,29.4,31.0,101.124,36.09,0,1,1,1,3,NONE,29,189
2026-05-27T23:35:24.470,817423,0.9,-0.03,-0.24,4.8,-4.2,8.1,-14.8,29.9,32.1,101.118,36.08,0,1,1,1,3,NONE,31,174
2026-05-27T23:35:24.518,817475,0.97,0.02,-0.21,19.2,0.0,9.4,-14.2,29.7,31.2,101.124,36.09,0,1,1,1,3,NONE,55,341
2026-05-27T23:35:24.573,817523,0.85,-0.03,-0.24,18.8,1.3,8.2,-13.9,29.3,31.4,101.122,36.08,0,1,0,1,2,NONE,61,280
2026-05-27T23:35:24.614,817571,0.95,-0.02,-0.24,15.9,11.0,4.1,-14.2,28.8,29.9,101.118,36.09,0,1,0,1,2,NONE,36,180
2026-05-27T23:35:24.670,817623,0.91,-0.07,-0.2,17.3,14.8,-0.7,-14.3,27.9,30.3,101.119,36.08,0,1,1,1,3,NONE,36,226
2026-05-27T23:35:24.714,817673,0.89,-0.07,-0.2,12.7,23.0,-2.1,-14.3,28.0,31.2,101.118,36.08,0,1,1,1,3,NONE,39,222
2026-05-27T23:35:24.770,817721,0.97,-0.11,-0.19,9.7,20.8,-5.9,-15.5,27.8,30.0,101.124,36.09,0,1,0,1,2,NONE,29,130
2026-05-27T23:35:24.824,817773,0.96,-0.15,-0.14,-1.8,10.7,-10.9,-15.6,27.7,30.2,101.125,36.09,0,1,0,1,2,NONE,32,158
2026-05-27T23:35:24.881,817825,0.79,-0.27,-0.14,-40.3,1.7,-16.8,-15.9,28.1,30.8,101.12,36.08,0,1,1,1,3,NONE,59,155
2026-05-27T23:35:24.922,817871,1.31,0.07,-0.71,6.3,44.5,7.9,-15.4,28.5,31.2,101.123,36.09,0,1,1,1,3,NONE,38,146
2026-05-27T23:35:24.972,817923,0.91,-0.32,-0.31,-20.8,3.5,-19.8,-16.3,29.6,29.8,101.12,36.08,0,1,0,1,2,NONE,70,358
2026-05-27T23:35:25.015,817971,0.94,-0.01,-0.39,7.4,2.8,-11.4,-16.4,29.8,30.3,101.122,36.08,0,1,0,1,2,NONE,45,258
2026-05-27T23:35:25.075,818023,0.84,-0.38,-0.28,7.1,-0.8,-10.1,-16.6,29.6,30.1,101.122,36.09,0,1,1,1,3,NONE,75,438
2026-05-27T23:35:25.114,818075,1.02,-0.33,-0.39,-11.4,-34.1,-8.0,-16.3,29.7,31.2,101.117,36.08,0,1,1,1,3,NONE,127,698
2026-05-27T23:35:25.176,818123,0.73,-0.24,-0.17,-17.3,-15.7,-5.9,-14.8,30.2,30.6,101.121,36.09,0,1,1,1,3,NONE,393,1807
2026-05-27T23:35:25.224,818172,0.87,-0.23,-0.23,-5.8,-5.2,-1.6,-14.8,30.2,30.6,101.121,36.09,0,1,1,1,3,NONE,305,1407
2026-05-27T23:35:25.275,818223,0.87,-0.29,-0.22,-1.3,2.5,3.1,-13.8,31.5,30.3,101.121,36.09,0,1,0,1,2,NONE,221,975
2026-05-27T23:35:25.324,818273,0.93,-0.32,-0.26,6.1,6.8,4.6,-13.8,30.9,29.5,101.123,36.09,0,1,0,1,2,NONE,162,1072
2026-05-27T23:35:25.372,818322,0.9,-0.35,-0.21,-9.8,-0.2,6.8,-13.3,31.2,29.0,101.121,36.09,0,1,0,1,2,NONE,145,744
2026-05-27T23:35:25.418,818373,0.92,-0.26,-0.2,2.4,3.5,7.0,-13.9,32.2,29.8,101.118,36.08,0,1,0,1,2,NONE,56,332
2026-05-27T23:35:25.476,818425,0.89,-0.29,-0.14,-0.5,2.2,9.8,-13.6,31.8,29.3,101.123,36.09,0,1,0,1,2,NONE,42,310
2026-05-27T23:35:25.524,818471,0.94,-0.23,-0.17,24.5,-7.3,13.4,-13.3,30.9,29.0,101.121,36.09,0,1,0,1,2,NONE,66,378
2026-05-27T23:35:25.564,818523,1.08,-0.32,-0.3,40.8,5.7,18.1,-13.1,30.1,28.6,101.118,36.08,0,1,0,1,2,NONE,65,385
2026-05-27T23:35:25.612,818571,1.02,-0.18,-0.29,-3.9,3.7,8.2,-14.1,29.5,29.4,101.121,36.09,0,1,0,1,2,NONE,69,430
2026-05-27T23:35:25.675,818623,0.96,-0.02,-0.26,44.8,-2.8,14.8,-13.2,29.0,29.5,101.123,36.09,0,1,0,1,2,NONE,79,363
2026-05-27T23:35:25.726,818675,0.89,-0.15,-0.29,34.9,7.1,13.5,-13.5,28.1,29.9,101.12,36.09,0,1,0,1,2,NONE,42,236
2026-05-27T23:35:25.773,818723,0.94,-0.04,-0.21,24.7,6.1,9.6,-13.2,26.9,29.3,101.12,36.09,0,1,0,1,2,NONE,18,102
2026-05-27T23:35:25.819,818771,0.93,-0.08,-0.19,13.3,3.2,2.3,-13.6,26.0,28.9,101.124,36.1,0,1,0,1,2,NONE,20,92
2026-05-27T23:35:25.867,818823,0.98,-0.02,-0.27,20.1,-1.1,-0.2,-13.5,26.9,28.6,101.122,36.09,0,1,0,1,2,NONE,41,88
2026-05-27T23:35:25.918,818873,0.92,-0.06,-0.2,24.2,-10.4,-2.4,-13.4,25.3,28.1,101.119,36.09,0,1,0,1,2,NONE,21,69
2026-05-27T23:35:25.967,818921,0.91,-0.05,-0.23,11.3,4.6,-1.4,-12.3,25.4,29.5,101.123,36.09,0,1,0,1,2,NONE,14,92
2026-05-27T23:35:26.012,818973,0.94,-0.1,-0.19,15.3,8.1,-4.5,-12.6,25.5,30.2,101.123,36.09,0,1,0,1,2,NONE,23,97
2026-05-27T23:35:26.077,819025,0.95,-0.08,-0.2,18.2,10.4,-6.2,-13.0,24.4,28.9,101.125,36.09,0,1,0,1,2,NONE,16,100
2026-05-27T23:35:26.123,819071,0.94,-0.06,-0.18,26.3,10.3,-10.6,-13.0,24.3,29.3,101.121,36.09,0,1,0,1,2,NONE,21,93
2026-05-27T23:35:26.169,819123,0.95,-0.1,-0.16,34.0,7.1,-12.1,-13.2,23.5,28.4,101.12,36.09,0,1,0,1,2,NONE,19,94
2026-05-27T23:35:26.219,819171,0.99,-0.1,-0.13,34.5,2.3,-15.0,-12.5,22.4,28.8,101.118,36.09,0,1,0,1,2,NONE,20,101
2026-05-27T23:35:26.270,819223,0.97,-0.15,-0.13,34.5,-1.3,-13.4,-12.8,21.9,28.2,101.12,36.09,0,1,0,1,2,NONE,23,145
2026-05-27T23:35:26.318,819274,1.02,-0.15,-0.19,22.8,-2.1,-10.3,-12.0,21.3,29.6,101.124,36.09,0,1,0,1,2,NONE,36,100
2026-05-27T23:35:26.366,819323,1.12,-0.02,-0.25,42.3,-2.6,0.4,-11.9,20.6,29.5,101.12,36.09,0,1,0,1,2,NONE,24,116
2026-05-27T23:35:26.419,819371,1.1,-0.36,-0.31,1.9,-4.4,-16.0,-10.7,19.2,27.0,101.123,36.09,0,1,0,1,2,NONE,37,164
2026-05-27T23:35:26.475,819423,0.83,-0.18,-0.33,-18.1,-13.5,-11.5,-10.8,20.9,27.9,101.121,36.09,0,1,0,1,2,NONE,28,166
2026-05-27T23:35:26.523,819473,0.82,-0.1,-0.25,28.3,-10.7,-4.3,-9.5,20.4,27.8,101.125,36.09,0,1,0,1,2,NONE,17,110
2026-05-27T23:35:26.572,819522,1.0,-0.21,-0.29,28.9,-7.8,-7.8,-9.5,20.1,28.2,101.121,36.09,0,1,1,1,3,NONE,29,141
2026-05-27T23:35:26.623,819573,0.87,-0.25,-0.23,22.1,-16.6,-10.9,-8.7,18.9,27.0,101.119,36.09,0,1,1,1,3,NONE,37,128
2026-05-27T23:35:26.671,819625,0.9,-0.22,-0.2,21.0,-12.3,-7.1,-7.8,19.1,26.3,101.121,36.09,0,1,1,1,3,NONE,31,184
2026-05-27T23:35:26.719,819671,0.9,-0.23,-0.19,23.9,-5.4,-5.2,-7.4,18.3,26.6,101.12,36.09,0,1,1,1,3,NONE,34,259
2026-05-27T23:35:26.769,819725,0.87,-0.27,-0.17,20.9,-3.3,-3.7,-7.0,17.9,26.6,101.123,36.09,0,1,1,1,3,NONE,42,222
2026-05-27T23:35:26.815,819771,0.9,-0.28,-0.14,12.1,4.2,0.4,-6.4,17.4,25.5,101.123,36.09,0,1,1,1,3,NONE,32,173
2026-05-27T23:35:26.875,819823,0.96,-0.23,-0.13,10.1,0.7,4.3,-6.9,17.3,24.5,101.122,36.1,0,1,0,1,2,NONE,22,111
2026-05-27T23:35:26.926,819874,0.93,-0.19,-0.13,28.8,-5.0,5.9,-5.8,17.0,25.4,101.12,36.09,0,1,0,1,2,NONE,35,111
2026-05-27T23:35:26.973,819923,0.94,-0.26,-0.05,29.7,-14.7,7.6,-5.8,16.4,25.6,101.123,36.1,0,1,0,1,2,NONE,19,82
2026-05-27T23:35:27.019,819971,1.17,-0.34,-0.18,43.8,3.1,8.1,-6.0,15.2,24.3,101.117,36.1,0,1,0,1,2,NONE,16,84
2026-05-27T23:35:27.068,820023,1.08,-0.16,-0.36,4.6,-0.1,6.8,-5.7,14.7,22.9,101.121,36.1,0,1,0,1,2,NONE,19,105
2026-05-27T23:35:27.115,820073,0.84,0.0,-0.24,53.5,-15.8,15.5,-5.9,14.5,25.2,101.118,36.09,0,1,0,1,2,NONE,25,79
2026-05-27T23:35:27.167,820121,0.71,-0.19,-0.19,56.2,6.3,5.2,-5.4,12.5,22.8,101.118,36.1,0,1,1,1,3,NONE,37,235
2026-05-27T23:35:27.216,820173,1.04,-0.07,-0.18,15.6,8.0,-1.3,-5.6,12.1,21.4,101.124,36.1,0,1,1,1,3,NONE,40,216
2026-05-27T23:35:27.278,820225,0.98,-0.12,-0.19,17.0,1.1,2.1,-5.6,11.4,21.6,101.12,36.09,0,1,0,1,2,NONE,29,127
2026-05-27T23:35:27.326,820271,0.94,-0.05,-0.15,35.2,-5.4,3.1,-5.3,11.5,20.1,101.122,36.1,0,1,0,1,2,NONE,30,196
2026-05-27T23:35:27.376,820325,0.9,-0.14,-0.1,24.2,5.8,2.6,-4.8,10.9,19.6,101.121,36.09,0,1,0,1,2,NONE,25,161
2026-05-27T23:35:27.422,820371,0.92,-0.12,-0.16,5.3,6.8,-0.3,-5.1,10.2,19.6,101.119,36.09,0,1,0,1,2,NONE,40,223
2026-05-27T23:35:27.472,820423,0.97,-0.12,-0.11,5.8,8.4,-3.1,-5.5,10.3,20.0,101.122,36.09,0,1,1,1,3,NONE,52,290
2026-05-27T23:35:27.518,820474,0.9,-0.13,-0.14,-4.5,-0.4,-6.9,-4.9,10.5,19.3,101.118,36.1,0,1,1,1,3,NONE,44,231
2026-05-27T23:35:27.568,820523,0.96,-0.11,-0.08,-7.8,-0.9,-4.6,-4.4,11.2,19.7,101.118,36.09,0,1,1,1,3,NONE,53,246
2026-05-27T23:35:27.621,820571,1.15,-0.13,-0.18,-6.0,14.8,-1.5,-4.7,11.0,19.7,101.121,36.09,0,1,1,1,3,NONE,63,295
2026-05-27T23:35:27.674,820623,0.95,-0.13,-0.17,9.3,-1.5,4.3,-5.0,11.3,21.2,101.12,36.09,0,1,1,1,3,NONE,65,301
2026-05-27T23:35:27.724,820673,1.16,-0.17,-0.37,-18.5,19.2,-1.7,-5.0,11.3,22.1,101.117,36.1,0,1,1,1,3,NONE,34,214
2026-05-27T23:35:27.772,820721,0.87,-0.22,-0.27,-13.1,-3.7,-1.4,-4.3,11.4,21.1,101.121,36.09,0,1,1,1,3,NONE,63,234
2026-05-27T23:35:27.820,820773,0.85,-0.22,-0.29,-9.7,6.9,1.0,-4.5,11.6,20.4,101.119,36.1,0,1,1,1,3,NONE,74,377
2026-05-27T23:35:27.873,820825,0.97,-0.15,-0.24,5.7,1.5,-0.8,-4.7,12.0,21.4,101.123,36.09,0,1,1,1,3,NONE,61,280
2026-05-27T23:35:27.921,820871,0.93,-0.24,-0.2,8.1,-4.7,-5.9,-4.0,12.3,20.9,101.121,36.1,0,1,1,1,3,NONE,88,379
2026-05-27T23:35:27.969,820923,0.85,-0.29,-0.17,-13.4,0.4,-3.5,-3.6,12.4,21.3,101.12,36.09,0,1,1,1,3,NONE,42,266
2026-05-27T23:35:28.021,820971,0.94,-0.27,-0.16,-6.0,4.3,-2.6,-3.4,12.4,21.8,101.121,36.09,0,1,1,1,3,NONE,148,599
2026-05-27T23:35:28.068,821023,0.89,-0.24,-0.17,-10.4,5.6,-0.8,-3.7,13.3,22.1,101.12,36.1,0,1,1,1,3,NONE,57,273
2026-05-27T23:35:28.127,821075,0.91,-0.25,-0.18,-4.9,7.6,1.9,-3.9,13.4,22.2,101.12,36.09,0,1,1,1,3,NONE,22,148
2026-05-27T23:35:28.175,821123,0.9,-0.27,-0.19,0.2,8.3,5.1,-4.1,13.8,21.8,101.123,36.1,0,1,1,1,3,NONE,53,301
2026-05-27T23:35:28.223,821171,0.94,-0.23,-0.17,-1.9,9.3,8.3,-4.3,13.7,22.1,101.121,36.1,0,1,1,1,3,NONE,73,311
2026-05-27T23:35:28.274,821223,0.89,-0.21,-0.21,17.6,8.4,7.4,-4.3,13.7,23.1,101.121,36.09,0,1,0,0,1,NONE,40,212
2026-05-27T23:35:28.317,821273,0.95,-0.23,-0.12,25.5,12.9,12.9,-4.4,13.1,22.6,101.119,36.09,0,1,0,0,1,NONE,30,145
2026-05-27T23:35:28.369,821322,0.95,-0.22,-0.21,30.3,18.1,17.3,-4.5,12.1,22.4,101.121,36.1,0,1,0,0,1,NONE,39,155
2026-05-27T23:35:28.415,821373,1.03,-0.38,-0.54,22.6,41.9,9.7,-5.0,12.2,22.1,101.121,36.1,0,1,0,0,1,NONE,36,204
2026-05-27T23:35:28.466,821425,0.98,-0.01,-0.21,-9.4,8.2,21.7,-6.1,11.3,22.6,101.123,36.1,0,1,0,0,1,NONE,56,279
2026-05-27T23:35:28.511,821471,0.95,-0.08,-0.23,55.1,3.6,14.3,-7.0,11.3,22.2,101.121,36.09,0,1,0,0,1,NONE,66,338
2026-05-27T23:35:28.579,821523,0.96,-0.02,-0.38,36.0,4.8,8.5,-7.5,10.3,21.2,101.118,36.09,0,1,0,0,1,NONE,40,240
2026-05-27T23:35:28.622,821571,0.89,-0.1,-0.26,24.7,-2.9,-0.4,-7.5,9.1,21.4,101.119,36.09,0,1,0,0,1,NONE,53,322
2026-05-27T23:35:28.675,821623,0.98,-0.11,-0.21,20.3,0.6,-2.4,-7.4,8.3,20.1,101.123,36.09,0,1,0,1,2,NONE,38,202
2026-05-27T23:35:28.719,821675,0.96,-0.04,-0.31,18.9,-1.3,-1.8,-6.8,8.9,19.5,101.124,36.1,0,1,0,1,2,NONE,35,185
2026-05-27T23:35:28.767,821723,0.94,-0.09,-0.25,16.3,-6.4,-0.9,-6.7,8.4,19.8,101.121,36.09,0,1,0,1,2,NONE,34,186
2026-05-27T23:35:28.819,821771,0.88,-0.07,-0.19,5.7,-4.2,-1.3,-5.8,8.4,19.0,101.121,36.09,0,1,0,1,2,NONE,33,124
2026-05-27T23:35:28.878,821824,0.9,-0.03,-0.19,-3.5,2.1,-3.7,-6.3,8.4,19.1,101.123,36.1,0,1,0,1,2,NONE,57,372
2026-05-27T23:35:28.915,821873,0.93,-0.08,-0.17,-7.3,3.3,-9.5,-5.8,8.3,19.8,101.121,36.09,0,1,0,1,2,NONE,53,294
2026-05-27T23:35:28.959,821921,0.95,-0.1,-0.16,-5.4,3.0,-12.5,-5.2,9.2,19.1,101.122,36.09,0,1,0,1,2,NONE,53,371
2026-05-27T23:35:29.024,821973,1.04,-0.13,-0.15,-15.0,-7.2,-10.3,-5.2,9.6,20.3,101.122,36.09,0,1,0,1,2,NONE,52,281
2026-05-27T23:35:29.072,822025,0.99,-0.13,-0.03,-18.1,-14.4,-10.2,-4.3,10.1,19.6,101.119,36.09,0,1,0,0,1,NONE,62,311
2026-05-27T23:35:29.121,822071,1.04,0.01,-0.3,-18.1,13.9,-3.4,-4.2,11.1,21.2,101.118,36.08,0,1,0,0,1,NONE,75,216
2026-05-27T23:35:29.172,822123,1.16,-0.25,-0.33,1.6,4.9,-7.0,-3.7,11.1,20.9,101.119,36.09,0,1,0,1,2,NONE,33,182
2026-05-27T23:35:29.219,822171,0.78,-0.22,-0.35,-22.4,-4.4,-6.4,-3.2,12.0,21.1,101.12,36.09,0,1,0,1,2,NONE,26,122
2026-05-27T23:35:29.266,822223,0.8,-0.22,-0.28,-13.1,10.9,-3.8,-3.8,12.8,20.5,101.122,36.09,0,1,0,0,1,NONE,30,152
2026-05-27T23:35:29.316,822275,0.93,-0.25,-0.25,2.1,7.0,-2.0,-3.2,12.6,22.0,101.122,36.09,0,1,0,0,1,NONE,41,168
2026-05-27T23:35:29.365,822323,0.91,-0.25,-0.23,2.0,2.4,-5.9,-2.9,12.8,21.9,101.12,36.08,0,1,0,0,1,NONE,44,208
2026-05-27T23:35:29.413,822371,0.87,-0.36,-0.21,-14.0,3.5,-5.1,-2.8,13.6,21.0,101.122,36.09,0,1,0,0,1,NONE,54,291
2026-05-27T23:35:29.472,822423,0.86,-0.26,-0.22,-15.3,6.8,-2.3,-3.0,14.3,22.1,101.121,36.09,0,1,0,0,1,NONE,43,210
2026-05-27T23:35:29.522,822473,0.9,-0.3,-0.19,-9.5,12.6,0.9,-2.8,14.6,24.6,101.124,36.09,0,1,0,0,1,NONE,46,229
2026-05-27T23:35:29.573,822522,0.89,-0.28,-0.2,-11.4,6.8,2.7,-3.0,14.8,23.8,101.121,36.09,0,1,0,0,1,NONE,42,282
2026-05-27T23:35:29.621,822573,0.92,-0.3,-0.17,-9.0,8.2,5.6,-3.3,15.3,24.0,101.125,36.09,0,1,0,0,1,NONE,53,233
2026-05-27T23:35:29.665,822625,0.91,-0.27,-0.17,-5.1,4.2,8.8,-3.1,16.0,23.9,101.12,36.09,0,1,0,0,1,NONE,40,175
2026-05-27T23:35:29.717,822671,0.93,-0.26,-0.15,6.4,4.2,11.5,-3.5,15.0,23.9,101.123,36.09,0,1,0,0,1,NONE,42,208
2026-05-27T23:35:29.771,822723,0.94,-0.22,-0.17,11.4,-0.9,13.8,-3.9,15.8,23.5,101.123,36.09,0,1,0,0,1,NONE,52,179
2026-05-27T23:35:29.809,822771,1.0,-0.23,-0.08,28.3,-7.4,16.4,-3.7,14.0,22.6,101.121,36.09,0,1,0,0,1,NONE,33,172
2026-05-27T23:35:29.873,822823,1.18,-0.37,-0.23,36.6,3.3,15.3,-3.7,13.6,22.9,101.121,36.09,0,1,0,1,2,NONE,53,337
2026-05-27T23:35:29.925,822875,1.05,-0.18,-0.33,9.9,-8.8,12.1,-3.9,13.0,22.9,101.12,36.08,0,1,0,1,2,NONE,71,458
2026-05-27T23:35:29.974,822923,0.85,0.02,-0.22,37.2,-15.0,15.7,-4.0,12.4,22.0,101.12,36.09,0,1,0,0,1,NONE,75,400
2026-05-27T23:35:30.022,822971,0.9,-0.2,-0.14,62.4,-8.3,7.0,-3.1,11.5,19.7,101.12,36.09,0,1,0,0,1,NONE,55,334
2026-05-27T23:35:30.073,823023,1.0,-0.15,-0.09,-1.5,-2.6,4.1,-3.2,10.7,20.0,101.12,36.09,0,1,1,1,3,NONE,41,227
2026-05-27T23:35:30.124,823073,1.01,-0.03,-0.25,10.4,-0.7,7.7,-3.2,10.6,20.6,101.125,36.09,0,1,1,1,3,NONE,39,186
2026-05-27T23:35:30.162,823122,0.93,-0.04,-0.12,24.0,-11.9,7.9,-2.9,10.1,21.5,101.121,36.08,0,1,1,1,3,NONE,24,164
2026-05-27T23:35:30.214,823173,0.91,-0.12,-0.13,16.1,0.1,4.2,-2.9,9.8,21.5,101.123,36.09,0,1,1,1,3,NONE,51,306
2026-05-27T23:35:30.276,823225,0.87,-0.06,-0.12,5.6,-0.4,0.2,-3.3,9.7,20.4,101.121,36.09,0,1,0,0,1,NONE,39,248
2026-05-27T23:35:30.322,823271,0.9,-0.06,-0.1,7.8,6.9,-5.7,-2.8,9.9,19.1,101.12,36.09,0,1,0,0,1,NONE,39,200
2026-05-27T23:35:30.376,823323,0.98,-0.12,-0.13,10.3,5.2,-10.1,-2.7,9.9,19.4,101.123,36.09,0,1,0,0,1,NONE,32,172
2026-05-27T23:35:30.416,823371,0.99,-0.11,-0.07,0.4,4.0,-11.0,-1.7,10.1,20.4,101.118,36.09,0,1,0,0,1,NONE,37,218
2026-05-27T23:35:30.466,823423,0.98,-0.13,0.0,-21.1,7.1,-6.0,-2.1,10.6,20.0,101.119,36.08,0,1,0,0,1,NONE,39,260
2026-05-27T23:35:30.513,823475,1.2,-0.2,-0.03,-32.3,16.2,-11.1,-1.8,11.3,19.5,101.119,36.08,0,1,0,0,1,NONE,27,138
2026-05-27T23:35:30.565,823523,0.94,-0.09,-0.4,-9.5,4.1,-11.9,-2.0,12.1,21.5,101.118,36.08,0,1,1,1,3,NONE,28,140
2026-05-27T23:35:30.614,823571,1.13,-0.17,-0.34,-4.0,15.3,1.8,-2.0,12.2,22.2,101.121,36.08,0,1,1,1,3,NONE,40,157
2026-05-27T23:35:30.675,823623,0.82,-0.37,-0.24,-16.5,-2.0,-7.2,-2.2,12.8,21.7,101.121,36.08,0,1,0,0,1,NONE,40,150
2026-05-27T23:35:30.723,823673,1.02,-0.16,-0.25,-0.3,13.2,0.5,-2.0,13.2,21.4,101.123,36.09,0,1,0,0,1,NONE,32,147
2026-05-27T23:35:30.773,823722,0.89,-0.28,-0.26,13.5,1.2,-5.3,-2.0,13.1,22.0,101.122,36.09,0,1,0,0,1,NONE,36,150
2026-05-27T23:35:30.819,823773,0.85,-0.31,-0.23,-0.9,7.3,-8.5,-1.5,13.5,22.9,101.124,36.09,0,1,0,0,1,NONE,41,167
2026-05-27T23:35:30.868,823825,0.87,-0.32,-0.23,-13.6,11.8,-5.5,-1.5,14.3,22.9,101.121,36.08,0,1,0,0,1,NONE,15,77
2026-05-27T23:35:30.920,823871,0.86,-0.28,-0.23,-3.7,7.8,-3.2,-1.9,14.4,23.1,101.119,36.08,0,1,0,0,1,NONE,37,172
2026-05-27T23:35:30.967,823923,0.96,-0.31,-0.18,-13.3,6.1,3.3,-2.1,15.2,22.7,101.121,36.08,0,1,0,0,1,NONE,38,227
2026-05-27T23:35:31.018,823971,0.88,-0.29,-0.14,-11.0,2.1,4.3,-1.9,15.3,23.2,101.122,36.09,0,1,0,0,1,NONE,32,199
2026-05-27T23:35:31.060,824023,0.91,-0.39,-0.11,-33.2,10.9,10.5,-2.1,15.8,22.9,101.122,36.08,0,1,0,0,1,NONE,24,129
2026-05-27T23:35:31.125,824075,0.92,-0.15,-0.2,-22.0,13.1,12.5,-2.7,16.3,24.8,101.121,36.08,0,1,0,0,1,NONE,32,151
2026-05-27T23:35:31.173,824123,0.91,-0.17,-0.22,-8.2,19.8,14.0,-2.8,17.5,24.0,101.119,36.08,0,1,0,1,2,NONE,31,173
2026-05-27T23:35:31.221,824171,0.94,-0.25,-0.21,-2.5,13.2,9.2,-3.2,16.9,24.0,101.119,36.08,0,1,0,1,2,NONE,22,155
2026-05-27T23:35:31.273,824223,0.97,-0.2,-0.16,8.4,9.9,12.0,-3.3,17.4,25.4,101.122,36.08,0,1,0,1,2,NONE,35,151
2026-05-27T23:35:31.321,824273,0.95,-0.24,-0.13,22.3,0.9,15.0,-4.2,16.9,25.3,101.12,36.08,0,1,0,1,2,NONE,28,149
2026-05-27T23:35:31.368,824322,0.97,-0.19,-0.19,39.4,-3.2,18.2,-3.7,16.2,25.8,101.121,36.08,0,1,0,0,1,NONE,31,110
2026-05-27T23:35:31.422,824373,1.01,-0.3,-0.39,45.2,8.7,15.0,-4.3,15.1,24.4,101.124,36.08,0,1,0,0,1,NONE,25,138
2026-05-27T23:35:31.462,824425,1.07,-0.12,-0.3,19.0,-4.5,16.4,-4.1,14.2,23.8,101.121,36.08,0,1,0,0,1,NONE,25,94
2026-05-27T23:35:31.510,824471,0.8,-0.08,-0.23,54.5,-16.6,15.9,-4.5,13.8,23.2,101.119,36.07,0,1,0,0,1,NONE,24,106
2026-05-27T23:35:31.574,824523,0.82,-0.03,-0.22,56.9,-2.8,7.2,-3.4,12.5,21.9,101.125,36.08,0,1,0,0,1,NONE,15,66
2026-05-27T23:35:31.623,824571,0.98,-0.13,-0.12,22.5,-4.3,-3.1,-3.3,10.7,21.4,101.119,36.08,0,1,0,0,1,NONE,22,89
2026-05-27T23:35:31.674,824623,1.0,-0.02,-0.28,9.0,2.9,-3.6,-3.1,10.9,20.6,101.119,36.08,0,1,0,0,1,NONE,34,135
2026-05-27T23:35:31.725,824675,0.91,-0.07,-0.16,25.6,-10.7,-1.8,-2.7,11.1,21.6,101.121,36.08,0,1,0,0,1,NONE,14,76
2026-05-27T23:35:31.771,824723,0.89,-0.11,-0.14,11.4,3.1,-1.8,-2.7,10.2,19.9,101.121,36.07,0,1,0,0,1,NONE,35,249
2026-05-27T23:35:31.819,824771,0.88,-0.13,-0.18,-2.9,16.6,-1.4,-2.6,10.6,19.6,101.116,36.08,0,1,0,0,1,NONE,91,361
2026-05-27T23:35:31.868,824823,0.94,-0.08,-0.14,-9.7,17.3,-4.6,-2.4,10.5,19.7,101.121,36.08,0,1,0,0,1,NONE,71,350
2026-05-27T23:35:31.920,824873,0.98,-0.13,-0.13,-18.9,18.7,-11.3,-2.5,11.0,21.7,101.125,36.08,0,1,0,0,1,NONE,110,487
2026-05-27T23:35:31.960,824921,0.96,-0.12,-0.16,-25.8,13.9,-12.4,-3.1,11.9,21.1,101.123,36.08,0,1,0,0,1,NONE,56,304
2026-05-27T23:35:32.026,824973,0.94,-0.13,-0.09,-31.7,5.7,-10.7,-3.2,12.5,22.4,101.12,36.08,0,1,0,0,1,NONE,42,191
2026-05-27T23:35:32.072,825025,1.13,-0.24,-0.33,-55.0,31.2,-4.2,-2.9,13.5,22.9,101.123,36.08,0,1,0,0,1,NONE,47,205
2026-05-27T23:35:32.122,825071,1.06,-0.17,-0.35,-29.6,15.6,3.0,-3.2,14.8,23.4,101.123,36.08,0,1,0,0,1,NONE,57,248
2026-05-27T23:35:32.173,825123,1.0,-0.19,-0.35,-35.1,11.2,3.7,-3.5,16.7,26.2,101.122,36.08,0,1,0,0,1,NONE,37,249
2026-05-27T23:35:32.221,825172,0.92,-0.22,-0.32,-27.2,11.9,1.3,-3.5,16.7,26.2,101.125,36.08,0,1,0,0,1,NONE,41,260
2026-05-27T23:35:32.265,825223,0.9,-0.33,-0.26,-13.0,1.9,-1.3,-4.4,18.6,27.6,101.117,36.08,0,1,0,0,1,NONE,88,482
2026-05-27T23:35:32.315,825275,0.93,-0.31,-0.25,-10.1,-2.8,-1.2,-4.0,19.6,26.6,101.121,36.08,0,1,0,0,1,NONE,80,419
2026-05-27T23:35:32.363,825323,0.85,-0.34,-0.24,-26.5,1.2,-1.3,-3.9,20.2,26.5,101.122,36.08,0,1,0,0,1,NONE,99,480
2026-05-27T23:35:32.415,825371,0.86,-0.3,-0.24,-24.4,6.4,1.6,-4.2,21.5,27.5,101.12,36.08,0,1,0,0,1,NONE,103,548
2026-05-27T23:35:32.475,825423,0.86,-0.32,-0.22,-21.5,9.6,4.5,-4.0,22.2,27.7,101.121,36.08,0,1,0,0,1,NONE,161,1002
2026-05-27T23:35:32.521,825473,0.86,-0.35,-0.22,-28.7,12.1,8.7,-4.3,22.8,27.9,101.122,36.08,0,1,0,0,1,NONE,107,485
2026-05-27T23:35:32.568,825521,0.88,-0.31,-0.2,-34.9,15.0,14.2,-4.7,23.6,27.0,101.123,36.08,0,1,0,0,1,NONE,52,252
2026-05-27T23:35:32.616,825573,0.92,-0.27,-0.16,-25.2,12.6,15.6,-5.5,25.1,28.4,101.124,36.08,0,1,0,0,1,NONE,34,257
2026-05-27T23:35:32.667,825625,0.87,-0.25,-0.15,-17.3,11.8,19.5,-5.7,25.7,28.1,101.123,36.07,0,1,0,0,1,NONE,18,106
2026-05-27T23:35:32.716,825671,0.92,-0.27,-0.15,-13.2,13.0,20.9,-6.2,25.5,28.1,101.122,36.08,0,1,0,0,1,NONE,19,117
2026-05-27T23:35:32.770,825723,0.92,-0.24,-0.17,-12.1,3.2,23.8,-5.6,25.3,28.3,101.121,36.08,0,1,0,0,1,NONE,16,81
2026-05-27T23:35:32.816,825771,0.97,-0.17,-0.18,8.8,2.9,27.0,-6.6,25.3,28.6,101.122,36.08,0,1,0,0,1,NONE,33,106
2026-05-27T23:35:32.872,825823,0.97,-0.33,-0.28,-5.1,9.5,15.3,-6.7,25.9,29.0,101.121,36.07,0,1,0,0,1,NONE,33,172
2026-05-27T23:35:32.925,825875,1.12,-0.13,-0.33,3.5,8.2,13.9,-6.5,25.9,30.2,101.117,36.08,0,1,0,0,1,NONE,35,168
2026-05-27T23:35:32.976,825923,0.94,-0.17,-0.28,20.2,-0.5,16.1,-6.9,25.1,28.1,101.12,36.07,0,1,0,0,1,NONE,27,149
2026-05-27T23:35:33.019,825971,0.93,-0.14,-0.25,16.1,0.1,15.1,-6.8,24.5,29.4,101.123,36.08,0,1,0,0,1,NONE,25,145
2026-05-27T23:35:33.066,826023,0.96,-0.08,-0.24,-11.0,2.4,11.4,-6.7,24.7,28.1,101.118,36.08,0,1,0,0,1,NONE,14,99
2026-05-27T23:35:33.117,826073,0.94,-0.02,-0.28,-12.4,3.9,10.0,-6.9,25.2,28.3,101.118,36.08,0,1,0,0,1,NONE,35,206
2026-05-27T23:35:33.160,826122,0.9,-0.1,-0.2,-4.9,1.9,10.0,-6.7,24.6,29.1,101.118,36.07,0,1,0,0,1,NONE,29,146
2026-05-27T23:35:33.223,826173,0.93,-0.06,-0.22,-17.8,12.6,8.6,-7.3,25.4,30.3,101.119,36.07,0,1,0,0,1,NONE,22,139
2026-05-27T23:35:33.277,826225,0.92,-0.07,-0.2,-15.2,10.9,4.9,-7.6,26.4,29.3,101.122,36.07,0,1,0,0,1,NONE,23,127
2026-05-27T23:35:33.322,826271,0.9,-0.09,-0.19,-17.0,14.4,-0.5,-7.7,26.7,29.8,101.12,36.07,0,1,0,0,1,NONE,21,116
2026-05-27T23:35:33.375,826323,0.93,-0.09,-0.16,-15.1,12.5,-5.0,-7.8,27.3,29.1,101.12,36.08,0,0,0,0,0,NONE,21,126
2026-05-27T23:35:33.420,826371,0.96,-0.18,-0.17,-27.1,14.9,-9.0,-7.8,28.4,29.5,101.121,36.07,0,0,0,0,0,NONE,17,112
2026-05-27T23:35:33.464,826423,0.96,-0.12,-0.18,-27.8,13.3,-9.9,-8.6,29.0,29.5,101.124,36.08,0,1,0,0,1,NONE,25,134
2026-05-27T23:35:33.518,826475,0.98,-0.21,-0.08,-48.1,-0.9,-8.2,-9.2,30.1,30.3,101.121,36.08,0,1,0,0,1,NONE,50,158
2026-05-27T23:35:33.575,826523,1.03,-0.06,-0.4,-50.3,24.7,-2.5,-8.8,32.9,29.5,101.12,36.07,0,1,0,0,1,NONE,50,224
2026-05-27T23:35:33.624,826574,1.17,-0.2,-0.38,-5.7,15.1,2.9,-9.2,33.7,29.7,101.122,36.07,0,1,0,0,1,NONE,34,176
2026-05-27T23:35:33.672,826621,0.9,-0.36,-0.4,-47.7,1.9,-1.0,-9.5,34.1,29.2,101.124,36.07,0,1,0,0,1,NONE,43,230
2026-05-27T23:35:33.724,826675,0.82,-0.27,-0.3,-62.1,4.0,2.0,-10.4,35.7,28.8,101.115,36.07,0,1,0,0,1,NONE,152,756
2026-05-27T23:35:33.769,826721,0.92,-0.23,-0.27,-25.8,6.1,2.2,-9.4,37.4,28.7,101.123,36.08,0,1,1,1,3,NONE,120,656
2026-05-27T23:35:33.821,826771,0.89,-0.33,-0.23,-22.6,-1.4,1.2,-9.4,38.1,28.5,101.121,36.07,0,1,1,1,3,NONE,140,609
2026-05-27T23:35:33.864,826821,0.84,-0.4,-0.23,-46.5,-0.7,3.4,-9.3,39.0,27.8,101.119,36.07,0,1,1,1,3,NONE,165,708
2026-05-27T23:35:33.920,826873,0.87,-0.27,-0.22,-33.9,2.9,6.1,-9.5,40.5,27.2,101.124,36.07,0,1,1,1,3,NONE,106,547
2026-05-27T23:35:33.964,826922,0.85,-0.34,-0.18,-38.2,4.9,11.8,-9.2,41.4,27.4,101.122,36.07,0,1,0,0,1,NONE,58,266
2026-05-27T23:35:34.024,826973,0.86,-0.3,-0.15,-29.4,5.1,14.9,-9.4,42.7,26.5,101.121,36.07,0,1,0,0,1,NONE,62,346
2026-05-27T23:35:34.075,827023,0.87,-0.3,-0.14,-32.5,5.9,16.1,-9.1,43.4,26.2,101.122,36.07,0,1,1,1,3,NONE,94,547
2026-05-27T23:35:34.125,827071,0.9,-0.24,-0.1,-17.5,5.9,16.2,-8.7,44.3,26.4,101.12,36.07,0,1,1,1,3,NONE,118,600
2026-05-27T23:35:34.168,827123,0.93,-0.27,-0.1,-8.8,4.8,16.7,-8.4,44.6,26.5,101.122,36.08,0,1,1,1,3,NONE,133,672
2026-05-27T23:35:34.221,827174,0.9,-0.22,0.0,-2.6,-4.4,22.7,-8.8,45.0,26.2,101.12,36.07,0,1,1,1,3,NONE,95,502
2026-05-27T23:35:34.268,827221,1.08,-0.18,-0.09,29.8,4.2,21.5,-7.7,44.2,26.5,101.121,36.07,0,0,0,0,0,NONE,52,282
2026-05-27T23:35:34.321,827275,1.03,-0.29,-0.33,5.5,22.0,4.8,-7.5,43.3,26.0,101.122,36.08,0,0,0,0,0,NONE,48,237
2026-05-27T23:35:34.372,827321,1.09,-0.23,-0.21,9.7,8.2,14.8,-9.0,42.8,26.1,101.12,36.07,0,0,0,0,0,NONE,42,175
2026-05-27T23:35:34.423,827371,0.95,-0.16,-0.23,33.1,5.9,20.1,-8.5,42.3,26.1,101.121,36.07,0,0,0,0,0,NONE,42,296
2026-05-27T23:35:34.474,827423,0.89,-0.02,-0.34,30.6,7.6,16.6,-8.5,41.3,27.7,101.12,36.07,0,0,0,0,0,NONE,62,355
2026-05-27T23:35:34.525,827474,0.84,0.01,-0.31,44.6,13.0,12.9,-8.1,40.6,27.6,101.122,36.07,0,0,0,0,0,NONE,40,170
2026-05-27T23:35:34.573,827523,0.92,-0.06,-0.22,41.1,7.1,1.3,-8.6,39.6,28.0,101.122,36.07,0,1,0,0,1,NONE,31,137
2026-05-27T23:35:34.620,827571,1.02,-0.14,-0.26,15.7,16.0,-1.5,-8.7,38.6,27.7,101.124,36.08,0,1,0,0,1,NONE,47,278
2026-05-27T23:35:34.673,827623,0.93,-0.07,-0.23,19.3,7.8,3.5,-9.3,37.9,29.0,101.122,36.08,0,0,0,0,0,NONE,56,284
2026-05-27T23:35:34.727,827673,0.93,-0.06,-0.22,17.9,20.3,3.2,-9.3,37.1,29.1,101.122,36.06,0,0,0,0,0,NONE,47,294
2026-05-27T23:35:34.759,827721,0.91,-0.0,-0.26,3.8,15.1,-0.7,-9.9,36.5,28.9,101.118,36.07,0,0,0,0,0,NONE,83,406
2026-05-27T23:35:34.824,827773,0.9,-0.1,-0.22,-0.4,12.9,-1.6,-10.1,36.8,29.4,101.121,36.07,0,0,0,0,0,NONE,84,563
2026-05-27T23:35:34.874,827825,0.9,-0.11,-0.2,-2.5,20.9,-5.4,-10.4,36.7,29.1,101.123,36.07,0,0,0,0,0,NONE,46,318
2026-05-27T23:35:34.919,827871,0.91,-0.11,-0.18,-13.4,11.5,-11.0,-11.6,37.3,29.2,101.119,36.07,0,0,0,0,0,NONE,68,417
2026-05-27T23:35:34.968,827923,1.0,-0.16,-0.19,-29.2,9.0,-11.8,-11.6,37.7,29.9,101.119,36.07,0,1,0,0,1,NONE,71,442
2026-05-27T23:35:35.017,827971,0.91,-0.16,-0.14,-31.4,-1.7,-13.9,-12.0,39.3,30.5,101.118,36.06,0,1,0,0,1,NONE,59,359
2026-05-27T23:35:35.068,828023,1.07,-0.11,-0.36,-38.3,22.1,-9.0,-12.2,40.3,30.3,101.122,36.07,0,0,0,0,0,NONE,86,346
2026-05-27T23:35:35.115,828074,1.19,-0.15,-0.54,13.5,8.5,0.9,-13.2,41.3,30.9,101.118,36.07,0,0,0,0,0,NONE,57,258
2026-05-27T23:35:35.174,828123,0.89,-0.35,-0.45,-27.6,9.2,-1.5,-13.6,41.5,29.4,101.119,36.06,0,0,0,0,0,NONE,44,213
2026-05-27T23:35:35.222,828171,0.87,-0.1,-0.41,-20.4,11.2,2.3,-13.3,42.5,29.0,101.122,36.07,0,0,0,0,0,NONE,57,320
2026-05-27T23:35:35.275,828223,0.86,-0.23,-0.37,-6.7,9.2,0.1,-13.8,43.2,29.5,101.122,36.07,0,0,0,0,0,NONE,42,255
2026-05-27T23:35:35.323,828273,0.89,-0.3,-0.38,-6.7,4.9,-4.4,-14.1,43.7,29.7,101.119,36.07,0,0,0,0,0,NONE,101,462
2026-05-27T23:35:35.370,828321,0.88,-0.25,-0.33,-9.6,6.0,3.4,-14.0,43.9,29.7,101.122,36.06,0,0,0,0,0,NONE,130,583
2026-05-27T23:35:35.415,828373,0.84,-0.26,-0.32,-7.6,9.3,4.7,-14.4,45.1,29.5,101.121,36.07,0,0,0,0,0,NONE,159,722
2026-05-27T23:35:35.477,828425,0.86,-0.23,-0.32,-10.1,13.5,7.8,-14.6,44.8,29.3,101.117,36.06,0,0,0,0,0,NONE,193,787
2026-05-27T23:35:35.513,828471,0.85,-0.25,-0.3,-4.2,18.1,12.6,-14.7,45.3,29.2,101.122,36.07,0,0,0,0,0,NONE,159,654
2026-05-27T23:35:35.573,828525,0.85,-0.19,-0.33,5.1,18.9,18.2,-15.1,45.4,29.3,101.121,36.06,0,1,0,0,1,NONE,100,506
2026-05-27T23:35:35.623,828571,0.88,-0.14,-0.33,21.1,16.1,24.1,-15.3,45.6,28.6,101.123,36.07,0,1,0,0,1,NONE,95,501
2026-05-27T23:35:35.674,828623,0.86,-0.15,-0.35,49.6,0.9,26.6,-15.9,44.1,31.4,101.123,36.07,0,0,0,0,0,NONE,103,479
2026-05-27T23:35:35.720,828674,0.93,-0.2,-0.36,67.2,10.6,24.4,-15.6,41.7,32.4,101.124,36.06,0,0,0,0,0,NONE,104,522
2026-05-27T23:35:35.769,828723,1.03,-0.4,-0.44,26.2,30.5,8.8,-16.2,41.2,31.1,101.118,36.06,0,0,0,0,0,NONE,57,396
2026-05-27T23:35:35.817,828771,0.96,-0.13,-0.4,-9.1,7.2,2.2,-16.3,41.2,31.8,101.122,36.07,0,0,0,0,0,NONE,68,453
2026-05-27T23:35:35.864,828823,0.94,-0.05,-0.47,13.5,8.9,1.8,-16.1,41.2,32.9,101.124,36.07,0,0,0,0,0,NONE,74,400
2026-05-27T23:35:35.922,828873,1.0,-0.03,-0.46,19.5,-8.8,-1.3,-16.3,40.4,32.8,101.123,36.07,0,0,0,0,0,NONE,72,419
2026-05-27T23:35:35.977,828921,0.93,-0.02,-0.37,10.8,-22.5,-3.7,-15.2,41.1,31.4,101.118,36.07,0,0,0,0,0,NONE,146,1007
2026-05-27T23:35:36.024,828973,0.93,-0.09,-0.35,6.9,-16.2,-0.9,-14.7,40.8,32.6,101.121,36.06,0,0,0,0,0,NONE,133,1067
2026-05-27T23:35:36.071,829025,0.82,-0.04,-0.4,-14.0,-13.5,-0.7,-14.3,41.0,32.4,101.121,36.08,0,0,0,0,0,NONE,110,570
2026-05-27T23:35:36.119,829071,0.81,-0.1,-0.39,5.7,-4.0,0.2,-13.4,40.9,31.3,101.124,36.07,0,0,0,0,0,NONE,132,699
2026-05-27T23:35:36.173,829123,0.83,-0.02,-0.3,7.2,-0.6,-1.8,-13.3,41.1,31.6,101.122,36.07,0,1,0,0,1,NONE,92,587
2026-05-27T23:35:36.225,829171,0.92,-0.07,-0.24,-4.3,7.0,-10.1,-13.7,41.3,31.2,101.123,36.07,0,1,0,0,1,NONE,122,747
2026-05-27T23:35:36.273,829223,0.97,-0.03,-0.22,-6.9,1.6,-14.5,-13.8,41.9,31.9,101.125,36.06,0,1,0,0,1,NONE,81,594
2026-05-27T23:35:36.316,829274,0.9,-0.15,-0.26,-16.1,2.1,-15.6,-14.7,41.9,32.7,101.123,36.07,0,1,0,0,1,NONE,112,615
2026-05-27T23:35:36.364,829323,0.98,-0.2,-0.24,-24.7,2.4,-11.8,-14.5,42.9,30.6,101.121,36.07,0,1,0,0,1,NONE,142,930
2026-05-27T23:35:36.408,829371,0.91,-0.24,-0.14,-26.8,-1.0,-10.7,-14.9,44.2,29.9,101.123,36.06,0,1,0,0,1,NONE,152,794
2026-05-27T23:35:36.475,829423,1.08,-0.22,-0.41,-48.4,14.8,-9.9,-14.5,45.3,30.4,101.122,36.07,0,0,0,0,0,NONE,78,406
2026-05-27T23:35:36.524,829473,0.93,-0.04,-0.47,0.1,-0.5,10.7,-15.6,46.5,29.7,101.124,36.06,0,0,0,0,0,NONE,93,542
2026-05-27T23:35:36.572,829522,0.98,-0.2,-0.43,-19.0,2.3,2.1,-15.5,46.7,29.3,101.119,36.06,0,1,0,0,1,NONE,96,483
2026-05-27T23:35:36.616,829573,0.89,-0.26,-0.33,-16.6,-1.0,1.4,-15.2,47.2,28.8,101.119,36.06,0,1,0,0,1,NONE,102,491
2026-05-27T23:35:36.676,829625,0.9,-0.24,-0.32,4.9,2.8,-0.5,-14.9,47.9,29.7,101.123,36.07,0,1,0,0,1,NONE,110,498
2026-05-27T23:35:36.716,829671,0.83,-0.29,-0.31,0.2,-3.8,-2.1,-15.0,47.7,29.6,101.124,36.06,0,1,0,0,1,NONE,70,431
2026-05-27T23:35:36.761,829723,0.86,-0.27,-0.28,-1.5,-3.4,0.7,-14.7,47.7,29.0,101.122,36.07,0,0,0,0,0,NONE,53,278
2026-05-27T23:35:36.812,829771,0.87,-0.27,-0.36,-4.8,-1.4,-1.8,-14.5,48.4,27.8,101.12,36.06,0,0,0,0,0,NONE,43,291
2026-05-27T23:35:36.873,829823,0.85,-0.28,-0.27,14.8,0.1,5.9,-14.5,47.9,28.5,101.124,36.07,0,1,0,0,1,NONE,97,381
2026-05-27T23:35:36.926,829874,0.83,-0.26,-0.33,7.2,8.3,8.4,-14.9,47.6,29.3,101.12,36.06,0,1,0,0,1,NONE,55,312
2026-05-27T23:35:36.968,829923,0.87,-0.27,-0.27,12.4,10.9,11.2,-14.8,47.4,29.0,101.122,36.06,0,1,0,0,1,NONE,42,298
2026-05-27T23:35:37.015,829971,0.89,-0.26,-0.28,5.9,5.9,13.5,-14.5,47.9,29.0,101.12,36.06,0,1,0,0,1,NONE,35,184
2026-05-27T23:35:37.063,830023,0.96,-0.27,-0.23,30.7,1.0,18.9,-14.3,46.9,29.5,101.12,36.07,0,0,0,0,0,NONE,48,278
2026-05-27T23:35:37.111,830073,0.93,-0.17,-0.23,30.5,-7.0,23.1,-13.9,46.4,29.9,101.12,36.06,0,0,0,0,0,NONE,40,239
2026-05-27T23:35:37.171,830121,1.0,-0.36,-0.4,54.9,10.2,20.4,-13.3,45.5,31.0,101.119,36.06,0,0,0,0,0,NONE,53,250
2026-05-27T23:35:37.224,830173,1.01,-0.08,-0.33,7.3,-3.5,11.4,-13.7,43.9,31.4,101.122,36.06,0,0,0,0,0,NONE,34,155
2026-05-27T23:35:37.270,830225,0.85,-0.07,-0.32,53.0,-13.9,5.4,-13.1,43.5,30.3,101.121,36.06,0,0,0,0,0,NONE,26,161
2026-05-27T23:35:37.318,830271,0.99,-0.11,-0.31,28.8,2.9,2.3,-12.5,42.1,32.0,101.118,36.06,0,0,0,0,0,NONE,33,191
2026-05-27T23:35:37.367,830325,0.93,-0.03,-0.29,7.9,-0.7,2.1,-12.0,41.1,31.6,101.117,36.06,0,0,0,0,0,NONE,39,200
2026-05-27T23:35:37.415,830371,0.92,0.09,-0.32,4.5,6.9,2.9,-12.1,41.5,31.7,101.122,36.07,0,0,0,0,0,NONE,39,197
2026-05-27T23:35:37.468,830423,0.91,0.01,-0.23,17.7,2.6,-3.4,-12.0,40.7,30.7,101.122,36.06,0,0,0,0,0,NONE,38,172
2026-05-27T23:35:37.526,830475,0.95,-0.09,-0.3,5.5,10.4,-2.7,-12.5,41.0,31.9,101.118,36.06,0,0,0,0,0,NONE,42,164
2026-05-27T23:35:37.574,830523,0.89,-0.08,-0.31,15.1,4.3,-2.0,-12.9,40.6,31.8,101.128,36.06,0,1,0,0,1,NONE,42,246
2026-05-27T23:35:37.622,830571,0.91,-0.07,-0.26,11.2,8.2,-0.7,-13.2,40.3,32.4,101.119,36.06,0,1,0,0,1,NONE,44,162
2026-05-27T23:35:37.673,830623,0.89,-0.08,-0.24,-2.3,9.2,-3.0,-13.4,39.7,31.1,101.125,36.06,0,1,0,0,1,NONE,34,170
2026-05-27T23:35:37.722,830673,0.96,-0.06,-0.21,-3.7,7.9,-11.1,-13.6,40.3,31.9,101.123,36.06,0,1,0,0,1,NONE,37,217
2026-05-27T23:35:37.769,830722,0.97,-0.14,-0.18,-13.2,3.3,-17.9,-13.7,41.1,31.3,101.121,36.06,0,0,0,0,0,NONE,58,257
2026-05-27T23:35:37.817,830773,0.94,-0.23,-0.16,-34.4,-18.6,-21.6,-14.5,42.5,32.3,101.122,36.06,0,0,0,0,0,NONE,150,309
2026-05-27T23:35:37.861,830825,1.46,0.1,-0.93,11.8,45.2,-9.3,-14.2,43.1,32.5,101.122,36.06,0,1,0,0,1,NONE,41,161
2026-05-27T23:35:37.910,830871,0.66,-0.53,-0.24,-4.0,-8.5,-13.9,-15.1,43.1,30.9,101.12,36.06,0,1,0,0,1,NONE,41,157
2026-05-27T23:35:37.974,830923,0.94,0.12,-0.27,-7.7,43.0,6.5,-14.6,43.3,32.2,101.124,36.06,0,1,0,0,1,NONE,34,172
2026-05-27T23:35:38.022,830971,1.04,-0.35,-0.39,9.6,-1.3,2.6,-16.1,43.5,31.4,101.12,36.06,0,1,0,0,1,NONE,49,205
2026-05-27T23:35:38.072,831023,0.82,-0.37,-0.31,-12.5,-0.5,-4.3,-16.4,43.2,31.4,101.12,36.06,0,1,0,0,1,NONE,35,187
2026-05-27T23:35:38.125,831075,0.88,-0.26,-0.32,-17.9,-0.4,-3.3,-15.6,44.4,31.0,101.119,36.06,0,1,0,0,1,NONE,32,141
2026-05-27T23:35:38.165,831123,0.9,-0.3,-0.36,-16.5,-4.9,4.0,-15.7,45.0,31.3,101.122,36.06,0,1,0,0,1,NONE,39,171
2026-05-27T23:35:38.213,831171,0.91,-0.28,-0.35,-18.8,-13.1,9.0,-15.1,46.2,30.1,101.12,36.06,0,1,0,0,1,NONE,43,203
2026-05-27T23:35:38.264,831223,0.74,-0.27,-0.28,-18.9,0.8,7.7,-15.0,46.3,29.1,101.12,36.06,0,1,0,0,1,NONE,42,211
2026-05-27T23:35:38.313,831273,0.9,-0.29,-0.14,-12.3,14.8,9.3,-14.5,46.9,29.3,101.121,36.06,0,1,0,0,1,NONE,49,216
2026-05-27T23:35:38.376,831322,0.98,-0.29,-0.26,-14.0,4.7,14.0,-14.4,47.2,28.9,101.123,36.06,0,1,0,0,1,NONE,46,247
2026-05-27T23:35:38.420,831373,0.9,-0.24,-0.2,-7.7,-2.1,20.0,-14.8,48.1,30.7,101.12,36.06,0,1,0,0,1,NONE,60,260
2026-05-27T23:35:38.472,831425,0.92,-0.23,-0.15,-3.5,-5.2,18.9,-14.0,48.3,28.9,101.12,36.06,0,1,0,0,1,NONE,62,307
2026-05-27T23:35:38.522,831471,0.9,-0.13,-0.04,16.2,-19.7,18.0,-13.3,48.5,27.9,101.126,36.06,0,1,0,0,1,NONE,48,258
2026-05-27T23:35:38.567,831523,1.1,-0.33,-0.33,22.8,4.9,8.1,-12.5,48.0,29.2,101.119,36.06,0,1,0,0,1,NONE,48,210
2026-05-27T23:35:38.613,831571,1.25,-0.1,-0.45,-1.9,12.0,13.3,-12.3,47.0,28.6,101.12,36.06,0,1,0,0,1,NONE,58,235
2026-05-27T23:35:38.666,831623,0.87,-0.11,-0.33,22.3,-18.3,15.3,-12.6,46.9,29.0,101.121,36.06,0,1,0,0,1,NONE,52,199
2026-05-27T23:35:38.725,831675,0.78,-0.08,-0.24,41.6,-8.5,16.7,-10.9,46.1,30.7,101.121,36.06,0,1,0,0,1,NONE,36,156
2026-05-27T23:35:38.774,831723,0.89,-0.1,-0.18,0.1,10.3,8.5,-10.6,45.2,31.5,101.12,36.06,0,1,0,0,1,NONE,42,155
2026-05-27T23:35:38.822,831771,1.08,0.08,-0.37,1.9,14.2,9.7,-10.2,44.9,30.4,101.122,36.06,0,1,0,0,1,NONE,42,168
2026-05-27T23:35:38.873,831824,0.92,0.04,-0.26,14.4,-14.5,2.3,-11.1,45.5,29.8,101.121,36.06,0,1,0,0,1,NONE,40,157
2026-05-27T23:35:38.920,831873,0.8,-0.05,-0.23,19.3,5.6,-3.3,-10.2,44.7,30.5,101.119,36.06,0,1,0,0,1,NONE,31,184
2026-05-27T23:35:38.969,831922,0.77,-0.07,-0.17,11.5,18.8,-1.5,-10.9,43.6,30.3,101.121,36.06,0,1,0,0,1,NONE,34,168
2026-05-27T23:35:39.027,831973,1.08,-0.12,-0.15,-12.5,28.3,-4.8,-10.9,44.0,31.6,101.122,36.06,0,1,0,0,1,NONE,54,184
2026-05-27T23:35:39.076,832025,1.05,-0.08,-0.3,-20.6,10.9,-6.3,-12.0,44.0,30.8,101.123,36.06,0,1,0,0,1,NONE,93,492
2026-05-27T23:35:39.108,832071,0.9,-0.27,-0.1,-16.1,-1.4,-1.5,-12.9,44.7,29.7,101.123,36.06,0,1,0,0,1,NONE,43,281
2026-05-27T23:35:39.173,832123,0.88,-0.24,-0.13,-40.5,5.5,-7.2,-13.0,47.5,29.7,101.124,36.06,0,1,0,1,2,NONE,131,748
2026-05-27T23:35:39.221,832171,1.15,0.01,-0.46,-54.7,31.3,-8.4,-13.8,49.4,28.8,101.12,36.06,0,1,0,1,2,NONE,81,487
2026-05-27T23:35:39.275,832223,1.08,-0.22,-0.25,-19.9,-25.1,0.1,-14.9,49.6,28.2,101.119,36.06,0,1,1,1,3,NONE,110,645
2026-05-27T23:35:39.316,832275,0.86,-0.17,-0.32,-41.0,4.0,-1.1,-14.0,50.5,29.4,101.123,36.06,0,1,1,1,3,NONE,68,450
2026-05-27T23:35:39.361,832323,1.0,-0.15,-0.31,1.2,0.2,1.2,-14.5,51.1,27.3,101.119,36.06,0,1,1,1,3,NONE,51,265
2026-05-27T23:35:39.412,832371,0.85,-0.32,-0.26,-12.0,-3.5,-8.1,-14.7,51.6,27.4,101.12,36.06,0,1,1,1,3,NONE,43,203
2026-05-27T23:35:39.475,832423,0.79,-0.23,-0.25,-17.2,0.6,-5.8,-14.5,51.4,28.0,101.122,36.06,0,1,0,1,2,NONE,45,300
2026-05-27T23:35:39.523,832473,0.85,-0.23,-0.22,-12.3,9.9,-0.9,-15.0,52.4,27.0,101.122,36.06,0,1,0,1,2,NONE,33,219
2026-05-27T23:35:39.571,832522,0.94,-0.22,-0.32,-1.7,5.6,-0.3,-15.1,53.2,26.3,101.116,36.05,0,1,0,1,2,NONE,37,227
2026-05-27T23:35:39.622,832573,0.88,-0.35,-0.19,-2.4,4.9,8.5,-14.7,52.8,27.6,101.121,36.06,0,1,0,1,2,NONE,57,325
2026-05-27T23:35:39.670,832625,0.89,-0.28,-0.25,-4.0,8.8,10.9,-15.1,52.9,25.4,101.116,36.05,0,1,0,0,1,NONE,55,314
2026-05-27T23:35:39.717,832671,0.84,-0.23,-0.2,-0.1,3.9,14.0,-14.9,52.7,25.5,101.121,36.06,0,1,0,0,1,NONE,58,343
2026-05-27T23:35:39.765,832723,1.0,-0.22,-0.29,19.5,3.6,11.3,-14.8,52.8,25.4,101.122,36.05,0,1,0,0,1,NONE,67,409
2026-05-27T23:35:39.811,832771,0.9,-0.24,-0.02,25.9,-20.1,13.2,-13.6,52.1,25.3,101.125,36.06,0,1,0,0,1,NONE,76,399
2026-05-27T23:35:39.874,832823,0.98,-0.25,-0.21,25.5,7.2,21.1,-12.7,51.3,27.0,101.122,36.05,0,1,0,0,1,NONE,119,638
2026-05-27T23:35:39.925,832875,1.05,-0.27,-0.5,8.1,11.4,-0.5,-13.5,50.4,28.7,101.12,36.06,0,1,0,0,1,NONE,77,461
2026-05-27T23:35:39.972,832923,1.02,-0.14,-0.29,4.8,-5.1,12.5,-12.5,50.9,25.8,101.119,36.06,0,1,0,0,1,NONE,42,204
2026-05-27T23:35:40.020,832971,0.88,-0.08,-0.31,39.9,7.5,15.7,-12.4,49.4,27.5,101.118,36.06,0,1,0,0,1,NONE,43,229
2026-05-27T23:35:40.068,833023,0.94,0.01,-0.24,28.4,-5.2,9.2,-11.7,48.8,28.4,101.123,36.06,0,1,0,1,2,NONE,59,225
2026-05-27T23:35:40.111,833073,1.0,-0.1,-0.22,14.2,3.2,0.9,-11.7,48.9,28.6,101.123,36.06,0,1,0,1,2,NONE,62,423
2026-05-27T23:35:40.162,833121,0.94,-0.08,-0.27,12.1,-10.3,3.4,-11.3,48.4,28.9,101.122,36.06,0,1,0,0,1,NONE,39,235
2026-05-27T23:35:40.224,833173,0.87,-0.06,-0.13,14.0,-5.2,1.5,-10.8,48.2,28.3,101.123,36.06,0,1,0,0,1,NONE,49,264
2026-05-27T23:35:40.274,833225,0.91,-0.09,-0.16,-0.3,1.2,-1.6,-11.6,48.4,28.4,101.124,36.06,0,1,0,0,1,NONE,60,360
2026-05-27T23:35:40.320,833271,0.88,-0.07,-0.11,-2.4,7.2,-7.0,-11.0,48.1,28.5,101.123,36.06,0,1,0,0,1,NONE,68,376
2026-05-27T23:35:40.372,833323,0.94,-0.11,-0.14,-5.4,11.6,-8.7,-11.8,48.8,28.7,101.12,36.05,0,1,0,1,2,NONE,53,349
2026-05-27T23:35:40.418,833371,0.91,-0.11,-0.12,-0.2,2.8,-7.0,-12.6,49.0,28.2,101.123,36.06,0,1,0,1,2,NONE,66,391
2026-05-27T23:35:40.474,833423,0.96,-0.09,-0.06,-11.8,5.9,-6.5,-12.3,49.8,28.5,101.124,36.06,0,1,0,1,2,NONE,46,283
2026-05-27T23:35:40.526,833475,1.21,-0.1,-0.34,-7.6,30.2,-5.3,-13.1,50.0,28.3,101.123,36.06,0,1,0,1,2,NONE,50,301
2026-05-27T23:35:40.576,833523,1.18,-0.19,-0.31,2.3,6.3,-5.0,-13.5,50.6,27.3,101.123,36.06,0,1,0,1,2,NONE,46,274
2026-05-27T23:35:40.611,833571,0.99,-0.21,-0.33,-46.4,5.4,-11.0,-14.7,51.4,27.4,101.122,36.05,0,1,0,1,2,NONE,56,312
2026-05-27T23:35:40.675,833623,0.83,-0.25,-0.37,-37.5,11.4,-3.1,-14.8,53.3,27.8,101.121,36.05,0,1,0,1,2,NONE,40,239
2026-05-27T23:35:40.721,833673,0.77,-0.28,-0.3,-27.0,15.6,-0.8,-15.6,53.7,26.3,101.122,36.05,0,1,0,1,2,NONE,48,261
2026-05-27T23:35:40.773,833721,0.98,-0.21,-0.35,-12.5,13.8,-2.0,-16.5,55.3,24.7,101.122,36.05,0,1,0,0,1,NONE,38,242
2026-05-27T23:35:40.819,833773,0.8,-0.33,-0.28,-14.3,2.3,-3.5,-16.3,55.3,25.9,101.123,36.05,0,1,0,0,1,NONE,50,300
2026-05-27T23:35:40.866,833825,0.82,-0.33,-0.35,-15.7,7.4,-1.0,-17.0,55.8,24.6,101.119,36.06,0,1,0,1,2,NONE,38,226
2026-05-27T23:35:40.916,833871,0.83,-0.37,-0.26,-11.8,13.9,8.4,-17.1,56.1,23.9,101.123,36.05,0,1,0,1,2,NONE,39,189
2026-05-27T23:35:40.963,833923,0.92,-0.31,-0.23,-14.5,20.0,10.8,-17.2,56.6,23.5,101.12,36.05,0,1,0,0,1,NONE,37,185
2026-05-27T23:35:41.012,833971,0.96,-0.24,-0.25,-21.3,12.1,16.4,-17.2,57.8,23.5,101.12,36.05,0,1,0,0,1,NONE,36,220
2026-05-27T23:35:41.072,834023,0.9,-0.25,-0.24,-4.8,4.2,17.4,-17.1,57.7,23.4,101.125,36.06,0,1,0,0,1,NONE,39,225
2026-05-27T23:35:41.120,834075,0.9,-0.17,-0.22,9.2,2.5,18.9,-16.6,57.9,22.5,101.121,36.05,0,1,0,0,1,NONE,26,186
2026-05-27T23:35:41.172,834123,0.89,-0.26,-0.16,9.6,-0.3,18.9,-16.0,57.9,23.2,101.119,36.05,0,1,0,0,1,NONE,34,233
2026-05-27T23:35:41.221,834171,0.91,-0.18,-0.22,8.8,4.8,18.2,-15.9,57.6,23.5,101.118,36.05,0,1,0,0,1,NONE,35,217
2026-05-27T23:35:41.264,834223,0.88,-0.21,-0.13,21.2,-4.5,17.8,-15.3,57.5,23.1,101.125,36.06,0,1,0,0,1,NONE,30,162
2026-05-27T23:35:41.324,834273,1.05,-0.35,-0.26,27.1,12.5,10.7,-14.6,56.5,24.0,101.122,36.05,0,1,0,0,1,NONE,44,196
2026-05-27T23:35:41.365,834321,1.07,-0.13,-0.35,11.2,7.9,2.6,-15.4,55.9,25.2,101.121,36.05,0,1,0,0,1,NONE,33,148
2026-05-27T23:35:41.422,834373,0.95,-0.17,-0.27,53.6,-3.9,9.2,-14.9,55.9,24.6,101.121,36.05,0,1,0,0,1,NONE,35,126
2026-05-27T23:35:41.474,834425,0.9,-0.05,-0.41,44.2,16.9,10.3,-14.5,54.3,26.4,101.123,36.05,0,1,1,1,3,NONE,14,98
2026-05-27T23:35:41.520,834471,0.85,-0.07,-0.36,34.4,0.3,-2.4,-14.6,53.4,26.2,101.122,36.05,0,1,1,1,3,NONE,35,145
2026-05-27T23:35:41.572,834523,0.93,-0.07,-0.31,33.6,6.6,-3.5,-14.9,52.5,27.3,101.119,36.04,0,1,0,0,1,NONE,24,106
2026-05-27T23:35:41.614,834571,1.0,-0.08,-0.3,6.2,3.3,-4.1,-15.6,51.6,28.5,101.124,36.05,0,1,0,0,1,NONE,32,147
2026-05-27T23:35:41.663,834623,0.99,-0.11,-0.29,4.9,7.6,0.3,-16.6,51.6,29.5,101.118,36.05,0,1,0,0,1,NONE,25,129
2026-05-27T23:35:41.725,834675,0.9,-0.06,-0.31,-2.4,7.1,-1.8,-16.5,51.9,29.5,101.12,36.05,0,1,0,0,1,NONE,26,120
2026-05-27T23:35:41.767,834723,0.88,-0.08,-0.22,-2.6,-0.2,-4.9,-16.5,51.8,28.9,101.12,36.05,0,1,0,0,1,NONE,37,181
2026-05-27T23:35:41.823,834771,0.85,-0.16,-0.21,-16.2,9.1,-8.4,-16.6,52.4,28.5,101.121,36.04,0,1,0,0,1,NONE,25,114
2026-05-27T23:35:41.874,834823,0.92,-0.12,-0.24,-20.4,12.2,-12.5,-16.8,53.2,27.8,101.122,36.05,0,1,0,0,1,NONE,30,134
2026-05-27T23:35:41.921,834873,0.94,-0.18,-0.19,-34.9,5.4,-9.3,-18.1,54.0,27.5,101.123,36.06,0,1,0,0,1,NONE,21,113
2026-05-27T23:35:41.967,834921,0.84,-0.11,-0.21,-40.0,7.6,-9.4,-18.0,55.0,27.2,101.12,36.05,0,1,0,1,2,NONE,62,107
2026-05-27T23:35:42.020,834973,1.16,-0.18,-0.47,-25.8,31.9,-1.4,-19.1,56.1,25.5,101.12,36.05,0,1,0,1,2,NONE,64,124
2026-05-27T23:35:42.079,835025,1.05,-0.31,-0.58,-19.7,27.8,1.2,-19.7,56.7,24.9,101.122,36.05,0,1,1,1,3,NONE,24,118
2026-05-27T23:35:42.122,835071,0.9,-0.23,-0.49,-26.6,15.6,5.0,-20.3,57.6,23.5,101.122,36.05,0,1,1,1,3,NONE,14,68
2026-05-27T23:35:42.175,835123,0.87,-0.19,-0.39,-17.5,9.4,9.0,-20.5,58.9,23.4,101.122,36.05,0,1,1,1,3,NONE,47,110
2026-05-27T23:35:42.222,835171,0.93,-0.32,-0.32,-17.2,7.4,3.0,-20.7,59.0,23.8,101.12,36.05,0,1,1,1,3,NONE,29,99
2026-05-27T23:35:42.271,835223,0.85,-0.37,-0.31,-24.5,-5.1,0.9,-20.2,59.6,23.0,101.119,36.05,0,1,0,0,1,NONE,29,95
2026-05-27T23:35:42.323,835275,0.86,-0.36,-0.28,-39.2,3.4,6.7,-20.2,60.8,21.4,101.123,36.05,0,1,0,0,1,NONE,23,104
2026-05-27T23:35:42.371,835323,0.88,-0.29,-0.28,-25.6,2.0,12.5,-20.1,61.5,20.1,101.12,36.04,0,1,1,1,3,NONE,20,93
2026-05-27T23:35:42.425,835374,0.84,-0.33,-0.29,-28.7,-1.9,14.8,-19.9,61.6,18.9,101.121,36.05,0,1,1,1,3,NONE,24,144
2026-05-27T23:35:42.463,835421,0.84,-0.34,-0.25,-30.2,6.3,19.1,-19.8,62.6,17.7,101.121,36.05,0,1,1,1,3,NONE,22,154
2026-05-27T23:35:42.511,835475,0.9,-0.34,-0.22,-30.3,5.0,21.2,-19.1,63.4,17.0,101.123,36.05,0,1,1,1,3,NONE,32,143
2026-05-27T23:35:42.563,835521,0.83,-0.29,-0.24,-30.7,7.7,24.0,-18.4,63.7,16.2,101.117,36.05,0,1,0,0,1,NONE,70,385
2026-05-27T23:35:42.623,835571,0.91,-0.15,-0.24,-1.8,5.4,24.2,-17.4,64.6,13.9,101.122,36.05,0,1,0,0,1,NONE,68,428
2026-05-27T23:35:42.671,835621,0.9,-0.2,-0.13,-0.3,-4.0,26.8,-16.2,63.9,14.6,101.121,36.05,0,1,0,1,2,NONE,45,256
2026-05-27T23:35:42.724,835673,0.99,-0.5,-0.38,7.1,36.3,20.9,-15.5,63.8,13.7,101.121,36.05,0,1,0,1,2,NONE,47,256
2026-05-27T23:35:42.770,835721,1.17,0.02,-0.33,-21.7,6.0,21.2,-15.1,64.7,14.2,101.119,36.05,0,1,0,0,1,NONE,28,149
2026-05-27T23:35:42.820,835773,0.87,-0.26,-0.31,26.0,1.0,11.7,-15.1,63.7,13.7,101.122,36.05,0,1,0,0,1,NONE,36,259
2026-05-27T23:35:42.864,835823,0.92,-0.1,-0.39,-3.4,14.3,7.0,-15.0,64.5,13.5,101.12,36.04,0,1,0,0,1,NONE,32,172
2026-05-27T23:35:42.919,835871,0.92,-0.04,-0.34,14.3,-1.5,7.1,-14.7,63.8,15.3,101.121,36.05,0,1,0,0,1,NONE,51,291
2026-05-27T23:35:42.969,835923,0.96,-0.09,-0.29,-1.6,-3.4,3.6,-14.0,64.0,14.6,101.121,36.05,0,1,0,0,1,NONE,36,211
2026-05-27T23:35:43.019,835971,0.94,-0.09,-0.32,-8.5,1.1,6.0,-14.3,63.8,13.6,101.122,36.05,0,1,0,0,1,NONE,43,222
2026-05-27T23:35:43.072,836023,0.91,-0.1,-0.27,-2.4,0.9,7.5,-14.2,64.0,13.7,101.116,36.05,0,1,0,0,1,NONE,40,261
2026-05-27T23:35:43.121,836071,0.9,-0.1,-0.29,-14.5,3.6,7.9,-14.0,64.3,13.2,101.123,36.05,0,1,0,0,1,NONE,63,396
2026-05-27T23:35:43.168,836123,0.92,-0.05,-0.24,-9.0,0.8,4.0,-13.9,65.0,12.2,101.118,36.05,0,1,0,1,2,NONE,56,305
2026-05-27T23:35:43.216,836173,0.89,-0.13,-0.19,-10.7,-1.0,-2.2,-14.2,64.3,11.0,101.12,36.04,0,1,0,1,2,NONE,36,250
2026-05-27T23:35:43.264,836221,0.97,-0.12,-0.16,-21.7,0.8,-6.6,-14.5,65.7,10.8,101.124,36.05,0,1,0,0,1,NONE,37,232
2026-05-27T23:35:43.324,836273,0.9,-0.17,-0.13,-27.4,0.5,-7.0,-14.5,65.6,10.6,101.121,36.04,0,1,0,0,1,NONE,29,175
2026-05-27T23:35:43.376,836325,0.93,-0.15,-0.19,-35.9,-1.0,-4.2,-15.1,66.1,8.5,101.119,36.04,0,1,1,1,3,NONE,34,191
2026-05-27T23:35:43.422,836371,0.93,-0.12,-0.19,-46.4,5.4,-3.1,-15.4,66.4,7.7,101.121,36.05,0,1,1,1,3,NONE,44,152
2026-05-27T23:35:43.475,836425,1.08,-0.12,-0.36,-28.7,13.2,-1.2,-15.9,67.2,6.8,101.119,36.04,0,1,1,1,3,NONE,26,113
2026-05-27T23:35:43.521,836471,1.19,-0.27,-0.42,-9.5,16.5,-3.6,-16.1,66.8,5.4,101.12,36.05,0,1,1,1,3,NONE,40,111
2026-05-27T23:35:43.567,836523,0.82,-0.37,-0.37,-43.7,0.4,-3.4,-16.1,67.5,4.5,101.121,36.05,0,1,1,1,3,NONE,29,141
2026-05-27T23:35:43.629,836574,0.81,-0.19,-0.29,-30.9,9.1,3.4,-16.3,67.5,3.3,101.122,36.04,0,1,1,1,3,NONE,21,95
2026-05-27T23:35:43.674,836623,0.91,-0.28,-0.29,-15.7,8.1,0.0,-16.1,67.3,2.3,101.119,36.04,0,1,1,1,3,NONE,31,100
2026-05-27T23:35:43.722,836671,0.94,-0.32,-0.24,-6.8,-0.1,-3.8,-16.5,67.3,1.6,101.118,36.04,0,1,1,1,3,NONE,18,112
2026-05-27T23:35:43.773,836723,0.83,-0.39,-0.26,-25.8,3.7,-1.4,-16.3,67.4,-0.2,101.124,36.04,0,1,0,1,2,NONE,37,266
2026-05-27T23:35:43.823,836773,0.83,-0.34,-0.3,-25.6,5.3,5.4,-16.5,67.5,0.3,101.117,36.04,0,1,0,1,2,NONE,30,181
2026-05-27T23:35:43.872,836821,0.91,-0.28,-0.27,-19.6,2.9,12.4,-15.9,67.7,-1.7,101.122,36.04,0,1,0,1,2,NONE,55,307
2026-05-27T23:35:43.924,836873,0.85,-0.31,-0.22,-14.0,6.3,15.1,-15.6,67.7,-1.9,101.122,36.04,0,1,0,1,2,NONE,41,197
2026-05-27T23:35:43.969,836925,0.88,-0.28,-0.13,-18.7,10.6,15.2,-15.4,67.7,-2.3,101.12,36.05,0,1,0,1,2,NONE,30,147
2026-05-27T23:35:44.019,836971,0.91,-0.27,-0.15,-16.2,10.4,18.7,-14.7,67.7,-3.2,101.119,36.04,0,1,0,1,2,NONE,37,219
2026-05-27T23:35:44.076,837025,0.88,-0.27,-0.11,-23.7,10.4,22.4,-13.7,67.5,-3.5,101.12,36.04,0,1,0,1,2,NONE,30,164
2026-05-27T23:35:44.117,837071,0.9,-0.2,-0.17,-9.3,11.5,24.1,-13.2,67.2,-4.9,101.12,36.04,0,1,0,1,2,NONE,23,126
2026-05-27T23:35:44.173,837123,0.97,-0.2,-0.14,-0.6,10.7,23.0,-11.5,66.6,-5.2,101.123,36.04,0,1,0,0,1,NONE,23,101
2026-05-27T23:35:44.229,837174,1.03,-0.4,-0.29,2.2,26.6,13.9,-10.7,66.6,-5.4,101.119,36.04,0,1,0,0,1,NONE,28,152
2026-05-27T23:35:44.275,837223,1.1,-0.15,-0.31,-21.3,25.6,15.2,-10.3,66.6,-5.3,101.118,36.04,0,1,0,0,1,NONE,18,104
2026-05-27T23:35:44.317,837271,0.91,-0.1,-0.31,24.4,5.4,19.9,-9.5,66.9,-6.5,101.121,36.04,0,1,0,0,1,NONE,24,109
2026-05-27T23:35:44.369,837323,0.98,-0.16,-0.27,19.9,14.2,15.5,-9.3,66.1,-6.1,101.121,36.04,0,1,0,0,1,NONE,21,70
2026-05-27T23:35:44.413,837373,0.87,-0.05,-0.39,9.7,13.0,8.3,-8.4,66.1,-3.8,101.119,36.04,0,1,0,0,1,NONE,24,128
2026-05-27T23:35:44.465,837421,0.88,-0.03,-0.33,27.3,15.0,2.9,-8.5,66.2,-4.5,101.121,36.04,0,1,0,0,1,NONE,19,72
2026-05-27T23:35:44.524,837473,0.95,-0.11,-0.33,7.9,14.3,-1.9,-8.4,66.3,-3.0,101.121,36.04,0,1,0,0,1,NONE,18,92
2026-05-27T23:35:44.575,837525,0.97,-0.08,-0.36,1.2,18.1,-1.7,-8.3,66.4,-2.2,101.122,36.04,0,1,0,1,2,NONE,30,97
2026-05-27T23:35:44.622,837571,0.96,-0.03,-0.32,4.6,1.5,0.7,-8.9,66.2,-3.2,101.118,36.04,0,1,0,1,2,NONE,22,104
2026-05-27T23:35:44.672,837623,0.9,-0.1,-0.26,5.4,1.6,0.5,-8.5,66.6,-2.2,101.119,36.04,0,1,0,1,2,NONE,16,81
2026-05-27T23:35:44.722,837671,0.88,-0.14,-0.29,-7.9,7.8,-1.6,-9.0,66.4,-3.0,101.12,36.04,0,1,0,1,2,NONE,21,116
2026-05-27T23:35:44.775,837723,0.84,-0.15,-0.24,-20.3,5.6,-1.0,-9.1,65.8,-3.8,101.119,36.04,0,1,1,1,3,NONE,13,86
2026-05-27T23:35:44.828,837774,1.01,-0.13,-0.26,-33.0,8.2,-3.1,-9.8,66.5,-4.3,101.119,36.04,0,1,1,1,3,NONE,32,143
2026-05-27T23:35:44.874,837823,0.93,-0.0,-0.3,-49.9,1.1,-8.5,-9.4,66.5,-5.6,101.123,36.04,0,1,0,1,2,NONE,32,171
2026-05-27T23:35:44.917,837871,0.91,-0.05,-0.25,-27.5,2.2,-9.2,-10.1,66.6,-8.7,101.119,36.04,0,1,0,1,2,NONE,34,134
2026-05-27T23:35:44.965,837923,1.33,-0.16,-0.51,-2.2,27.6,-6.8,-10.3,66.9,-8.3,101.122,36.04,0,1,0,1,2,NONE,27,137
2026-05-27T23:35:45.018,837973,0.88,-0.41,-0.4,-28.4,-2.4,-7.0,-10.4,66.2,-8.4,101.121,36.04,0,1,0,1,2,NONE,33,156
2026-05-27T23:35:45.066,838021,0.91,-0.22,-0.47,-24.0,6.2,0.2,-11.0,65.7,-10.2,101.121,36.04,0,1,0,1,2,NONE,36,146
2026-05-27T23:35:45.109,838073,0.86,-0.22,-0.37,-14.2,-3.8,7.5,-10.4,65.4,-11.9,101.119,36.04,0,1,0,1,2,NONE,33,135
2026-05-27T23:35:45.173,838125,0.87,-0.28,-0.33,-9.9,-1.9,0.7,-10.4,65.4,-11.3,101.121,36.04,0,1,1,1,3,NONE,23,96
2026-05-27T23:35:45.221,838171,0.85,-0.3,-0.32,-5.6,-13.5,-2.8,-10.6,64.8,-12.7,101.119,36.04,0,1,1,1,3,NONE,25,119
2026-05-27T23:35:45.270,838223,0.85,-0.38,-0.27,-24.2,-9.8,-0.1,-11.2,64.3,-13.4,101.118,36.04,0,1,1,1,3,NONE,34,124
2026-05-27T23:35:45.318,838271,0.83,-0.35,-0.3,-16.2,-7.6,2.6,-11.6,64.2,-14.2,101.119,36.04,0,1,1,1,3,NONE,25,156
2026-05-27T23:35:45.371,838323,0.9,-0.32,-0.3,-21.9,-7.6,10.6,-10.9,64.3,-15.7,101.122,36.04,0,1,0,0,1,NONE,25,131
2026-05-27T23:35:45.414,838374,0.86,-0.23,-0.25,-7.2,-4.0,9.8,-11.0,63.9,-15.1,101.119,36.04,0,1,0,0,1,NONE,32,118
2026-05-27T23:35:45.474,838423,0.86,-0.36,-0.2,-8.8,1.1,4.2,-10.8,63.1,-16.1,101.119,36.04,0,1,1,1,3,NONE,27,94
2026-05-27T23:35:45.514,838471,0.95,-0.37,-0.16,-20.8,6.2,11.8,-10.5,63.0,-16.3,101.12,36.04,0,1,1,1,3,NONE,32,148
2026-05-27T23:35:45.571,838523,0.9,-0.29,-0.15,-6.3,4.3,20.1,-10.3,62.4,-16.8,101.122,36.04,0,1,0,1,2,NONE,24,147
2026-05-27T23:35:45.619,838573,0.97,-0.21,-0.14,6.8,-11.2,24.2,-9.4,62.1,-17.4,101.121,36.04,0,1,0,1,2,NONE,30,135
2026-05-27T23:35:45.671,838621,0.94,-0.29,-0.04,7.8,-29.9,19.3,-8.6,62.7,-17.6,101.121,36.04,0,1,0,1,2,NONE,26,107
2026-05-27T23:35:45.724,838673,1.11,-0.41,-0.3,-12.3,26.8,14.5,-8.9,62.5,-18.5,101.122,36.03,0,1,0,1,2,NONE,18,84
2026-05-27T23:35:45.775,838725,1.0,0.0,-0.29,8.3,6.1,28.7,-8.0,61.9,-18.1,101.123,36.04,0,1,0,1,2,NONE,20,104
2026-05-27T23:35:45.811,838771,0.82,-0.07,-0.1,36.3,9.5,17.0,-7.4,61.1,-17.3,101.12,36.03,0,1,0,1,2,NONE,20,79
2026-05-27T23:35:45.876,838825,0.99,-0.01,-0.34,17.0,20.0,13.2,-6.9,61.9,-16.6,101.119,36.03,0,1,0,1,2,NONE,15,92
2026-05-27T23:35:45.922,838871,0.99,-0.11,-0.14,4.8,0.7,6.0,-6.2,61.7,-16.6,101.123,36.04,0,1,0,1,2,NONE,16,93
2026-05-27T23:35:45.974,838923,0.95,-0.07,-0.27,9.3,5.6,7.1,-5.7,62.0,-16.8,101.121,36.03,0,1,0,1,2,NONE,131,758
2026-05-27T23:35:46.017,838975,0.93,-0.09,-0.14,16.4,-3.4,5.1,-6.0,61.7,-16.3,101.122,36.04,0,1,0,1,2,NONE,59,307
2026-05-27T23:35:46.072,839023,0.91,-0.12,-0.17,-0.9,1.6,0.6,-6.0,61.6,-16.4,101.122,36.04,0,1,0,1,2,NONE,36,228
2026-05-27T23:35:46.121,839071,0.91,-0.05,-0.11,-8.2,5.3,-1.8,-6.4,61.4,-15.7,101.12,36.04,0,1,0,1,2,NONE,57,318
2026-05-27T23:35:46.173,839123,0.93,-0.06,-0.08,-1.6,11.8,-6.1,-6.1,62.1,-15.5,101.121,36.04,0,1,0,1,2,NONE,55,370
2026-05-27T23:35:46.220,839173,1.0,-0.07,-0.1,2.2,3.2,-11.4,-6.3,61.7,-15.1,101.118,36.03,0,1,0,1,2,NONE,39,211
2026-05-27T23:35:46.273,839221,0.96,-0.14,-0.08,-5.8,1.1,-6.8,-6.8,61.8,-16.8,101.118,36.04,0,1,0,0,1,NONE,27,175
2026-05-27T23:35:46.323,839273,0.91,-0.24,-0.08,-36.2,2.6,-6.7,-7.3,61.4,-18.3,101.121,36.04,0,1,0,0,1,NONE,74,306
2026-05-27T23:35:46.374,839325,1.15,0.03,-0.43,-2.4,30.0,-4.5,-6.7,60.5,-17.6,101.121,36.04,0,1,0,0,1,NONE,42,167
2026-05-27T23:35:46.422,839371,1.22,-0.21,-0.36,10.9,9.1,-8.8,-6.7,61.2,-18.6,101.125,36.04,0,1,0,0,1,NONE,32,178
2026-05-27T23:35:46.474,839423,0.87,-0.32,-0.34,-38.8,4.0,-14.6,-7.5,61.0,-18.8,101.121,36.04,0,1,0,1,2,NONE,27,174
2026-05-27T23:35:46.511,839471,0.83,-0.15,-0.32,-11.5,4.5,-2.7,-7.3,59.5,-18.2,101.119,36.03,0,1,0,1,2,NONE,51,284
2026-05-27T23:35:46.574,839523,0.93,-0.29,-0.27,5.3,4.9,-1.2,-7.9,60.1,-20.1,101.121,36.04,0,1,1,1,3,NONE,33,171
2026-05-27T23:35:46.622,839575,0.89,-0.32,-0.25,-13.4,3.9,-5.1,-8.0,60.1,-20.0,101.121,36.04,0,1,1,1,3,NONE,25,134
2026-05-27T23:35:46.674,839623,0.9,-0.37,-0.28,-23.6,4.8,-1.2,-8.3,59.7,-21.8,101.121,36.04,0,1,1,1,3,NONE,47,266
2026-05-27T23:35:46.723,839671,0.9,-0.19,-0.26,-10.1,-0.5,1.4,-8.0,58.9,-21.6,101.12,36.04,0,1,1,1,3,NONE,32,187
2026-05-27T23:35:46.773,839723,0.84,-0.25,-0.18,-4.0,5.2,4.5,-7.8,58.8,-22.9,101.12,36.04,0,1,0,1,2,NONE,20,113
2026-05-27T23:35:46.818,839773,0.89,-0.34,-0.2,-16.1,4.8,6.7,-7.4,58.1,-21.7,101.121,36.04,0,1,0,1,2,NONE,50,286
2026-05-27T23:35:46.862,839822,0.91,-0.3,-0.14,-18.9,1.5,11.4,-7.1,57.3,-22.6,101.121,36.04,0,1,0,1,2,NONE,68,372
2026-05-27T23:35:46.914,839873,0.89,-0.27,-0.18,-12.3,2.2,14.5,-7.1,56.3,-23.3,101.12,36.04,0,1,0,1,2,NONE,20,150
2026-05-27T23:35:46.978,839925,0.93,-0.27,-0.14,-1.5,1.8,16.3,-6.8,56.2,-23.0,101.122,36.04,0,1,0,1,2,NONE,74,368
2026-05-27T23:35:47.022,839971,0.89,-0.18,-0.14,-4.0,1.8,20.0,-6.4,55.5,-23.6,101.119,36.04,0,1,0,1,2,NONE,52,308
2026-05-27T23:35:47.074,840023,0.96,-0.29,-0.14,-1.2,10.6,16.4,-5.5,55.2,-25.5,101.122,36.04,0,1,0,1,2,NONE,68,380
2026-05-27T23:35:47.121,840071,1.0,-0.3,-0.17,1.5,17.0,8.4,-4.4,55.2,-23.8,101.126,36.04,0,1,0,1,2,NONE,44,275
2026-05-27T23:35:47.170,840123,1.04,-0.16,-0.19,-0.1,18.7,12.7,-4.1,54.4,-24.6,101.122,36.04,0,1,0,1,2,NONE,34,129
2026-05-27T23:35:47.217,840175,1.13,-0.11,-0.29,20.0,17.1,10.9,-3.9,55.2,-23.4,101.12,36.04,0,1,0,1,2,NONE,47,248
2026-05-27T23:35:47.273,840223,0.95,-0.02,-0.33,28.7,2.3,9.4,-3.2,55.1,-23.1,101.12,36.04,0,1,0,1,2,NONE,79,452
2026-05-27T23:35:47.323,840271,0.96,-0.02,-0.28,38.9,4.7,3.4,-3.0,55.6,-21.1,101.12,36.03,0,1,0,1,2,NONE,92,462
2026-05-27T23:35:47.374,840323,0.9,-0.09,-0.23,34.3,1.5,-0.6,-3.7,56.2,-20.6,101.121,36.03,0,1,0,1,2,NONE,110,532
2026-05-27T23:35:47.424,840373,1.0,-0.1,-0.23,15.4,6.5,1.1,-3.2,57.0,-18.8,101.119,36.04,0,1,0,1,2,NONE,99,740
2026-05-27T23:35:47.469,840421,0.97,0.02,-0.26,33.8,-3.8,0.4,-3.6,57.2,-18.6,101.121,36.03,0,1,1,1,3,NONE,50,299
2026-05-27T23:35:47.523,840473,0.88,-0.06,-0.21,33.1,2.4,1.4,-3.7,57.9,-19.8,101.123,36.04,0,1,1,1,3,NONE,53,344
2026-05-27T23:35:47.565,840525,0.92,-0.05,-0.24,22.9,10.8,-0.9,-3.3,58.4,-19.1,101.119,36.04,0,1,0,1,2,NONE,110,576
2026-05-27T23:35:47.622,840571,0.91,-0.07,-0.17,15.7,4.6,-5.4,-3.4,58.9,-17.8,101.121,36.04,0,1,0,1,2,NONE,113,620
2026-05-27T23:35:47.672,840623,0.94,-0.13,-0.17,7.3,7.0,-12.2,-4.1,58.9,-18.7,101.123,36.04,0,1,0,0,1,NONE,79,422
2026-05-27T23:35:47.721,840671,0.95,-0.15,-0.15,-16.3,0.9,-9.9,-4.4,59.5,-17.7,101.123,36.04,0,1,0,0,1,NONE,66,453
2026-05-27T23:35:47.773,840723,0.92,-0.14,-0.08,-37.7,-8.5,-10.6,-5.2,58.7,-18.8,101.123,36.03,0,1,0,0,1,NONE,47,250
2026-05-27T23:35:47.815,840775,1.27,0.05,-0.41,-17.6,29.5,-3.3,-5.4,58.6,-20.9,101.12,36.03,0,1,0,0,1,NONE,47,195
2026-05-27T23:35:47.872,840823,0.99,-0.29,-0.19,-6.2,-15.9,-3.5,-5.3,57.7,-21.9,101.123,36.03,0,1,0,1,2,NONE,43,208
2026-05-27T23:35:47.923,840871,0.92,-0.15,-0.33,-34.1,4.9,-2.5,-6.0,56.9,-21.7,101.122,36.04,0,1,0,1,2,NONE,47,156
2026-05-27T23:35:47.973,840923,0.86,-0.21,-0.32,-9.0,-1.0,0.8,-5.7,56.5,-22.5,101.121,36.03,0,1,1,1,3,NONE,42,248
2026-05-27T23:35:48.020,840973,0.86,-0.34,-0.32,-19.2,3.6,-2.7,-5.6,56.8,-22.4,101.121,36.03,0,1,1,1,3,NONE,40,293
2026-05-27T23:35:48.068,841022,0.97,-0.28,-0.28,-17.3,1.0,-3.7,-6.3,55.5,-22.6,101.122,36.03,0,1,1,1,3,NONE,63,182
2026-05-27T23:35:48.124,841073,0.91,-0.3,-0.2,-17.0,-2.2,-3.5,-6.3,55.5,-24.7,101.122,36.03,0,1,1,1,3,NONE,33,205
2026-05-27T23:35:48.176,841125,0.91,-0.27,-0.23,-15.6,2.5,-1.1,-6.3,54.4,-24.3,101.115,36.03,0,1,1,1,3,NONE,38,231
2026-05-27T23:35:48.226,841171,0.9,-0.25,-0.2,-7.0,0.7,2.1,-6.1,54.4,-24.9,101.122,36.03,0,1,1,1,3,NONE,20,115
2026-05-27T23:35:48.266,841223,0.9,-0.35,-0.22,-11.4,-3.2,0.9,-6.0,54.0,-25.2,101.121,36.03,0,1,1,1,3,NONE,28,134
2026-05-27T23:35:48.314,841271,0.88,-0.31,-0.2,-11.2,11.7,4.3,-6.6,53.8,-24.7,101.12,36.03,0,1,1,1,3,NONE,27,171
2026-05-27T23:35:48.361,841323,0.85,-0.27,-0.16,-14.8,8.2,7.7,-6.5,53.4,-26.2,101.122,36.03,0,1,1,1,3,NONE,35,217
2026-05-27T23:35:48.425,841375,0.9,-0.22,-0.19,-4.6,14.8,8.6,-5.7,52.5,-26.9,101.118,36.03,0,1,1,1,3,NONE,26,152
2026-05-27T23:35:48.472,841423,0.99,-0.21,-0.08,6.7,-11.8,12.8,-5.1,52.6,-26.9,101.12,36.04,0,1,1,1,3,NONE,44,145
2026-05-27T23:35:48.524,841471,0.88,-0.2,0.01,12.1,-3.5,15.7,-5.3,52.2,-26.4,101.121,36.03,0,1,1,1,3,NONE,102,453
2026-05-27T23:35:48.568,841523,0.96,-0.19,-0.07,33.5,16.8,22.6,-5.4,52.5,-25.7,101.118,36.03,0,1,0,1,2,NONE,44,164
2026-05-27T23:35:48.617,841573,0.92,-0.38,-0.31,7.1,43.2,23.3,-4.8,52.6,-26.8,101.121,36.03,0,1,0,1,2,NONE,78,309
2026-05-27T23:35:48.663,841621,1.07,-0.01,-0.33,1.1,29.7,20.3,-2.8,52.1,-24.3,101.116,36.03,0,1,0,0,1,NONE,75,432
2026-05-27T23:35:48.716,841673,1.08,-0.32,-0.42,55.8,8.5,16.5,-1.8,52.2,-25.2,101.123,36.04,0,1,0,0,1,NONE,60,349
2026-05-27T23:35:48.776,841725,0.96,-0.06,-0.28,2.5,0.2,7.4,-1.2,53.1,-24.4,101.118,36.03,0,1,1,1,3,NONE,40,184
2026-05-27T23:35:48.818,841771,0.85,-0.04,-0.28,38.4,-0.9,6.5,-1.6,53.2,-24.0,101.124,36.03,0,1,1,1,3,NONE,59,345
2026-05-27T23:35:48.871,841823,0.91,-0.07,-0.24,41.3,18.3,9.9,-1.4,53.5,-23.5,101.124,36.03,0,1,0,0,1,NONE,52,325
2026-05-27T23:35:48.922,841871,1.05,-0.09,-0.27,26.4,13.2,5.9,-0.9,54.1,-21.4,101.119,36.03,0,1,0,0,1,NONE,53,267
2026-05-27T23:35:48.967,841923,1.0,0.01,-0.34,16.4,-4.1,3.3,-0.4,54.2,-21.0,101.122,36.03,0,1,0,0,1,NONE,48,328
2026-05-27T23:35:49.016,841975,0.92,0.04,-0.26,30.1,-6.9,-2.1,-1.1,54.6,-21.3,101.12,36.03,0,1,0,0,1,NONE,89,523
2026-05-27T23:35:49.064,842023,0.91,-0.04,-0.22,24.5,-2.3,-7.5,-1.8,55.5,-20.0,101.121,36.03,0,1,0,1,2,NONE,70,513
2026-05-27T23:35:49.113,842071,0.9,-0.09,-0.25,6.2,-7.4,-9.6,-2.3,56.1,-19.4,101.124,36.03,0,1,0,1,2,NONE,69,447
2026-05-27T23:35:49.165,842123,0.84,-0.08,-0.15,10.3,-2.1,-9.2,-2.6,56.0,-20.7,101.119,36.04,0,1,0,0,1,NONE,58,369
2026-05-27T23:35:49.209,842173,0.93,-0.04,-0.15,11.7,11.9,-11.4,-3.0,56.9,-19.7,101.122,36.03,0,1,0,0,1,NONE,90,557
2026-05-27T23:35:49.273,842221,1.0,-0.2,-0.15,-3.2,10.9,-11.4,-2.6,57.1,-19.4,101.121,36.03,0,1,0,0,1,NONE,70,411
2026-05-27T23:35:49.320,842273,0.92,-0.22,-0.11,-20.1,8.9,-9.9,-3.1,56.8,-20.0,101.119,36.03,0,1,0,0,1,NONE,46,245
2026-05-27T23:35:49.368,842325,0.9,-0.12,-0.15,-39.8,10.0,-6.9,-3.7,57.0,-20.8,101.12,36.03,0,1,1,1,3,NONE,47,205
2026-05-27T23:35:49.416,842371,1.09,0.02,-0.44,-32.5,42.7,1.5,-3.3,55.9,-21.8,101.119,36.03,0,1,1,1,3,NONE,64,164
2026-05-27T23:35:49.469,842423,1.08,-0.22,-0.3,-18.6,12.9,0.5,-2.7,55.3,-21.2,101.12,36.03,0,1,0,1,2,NONE,43,229
2026-05-27T23:35:49.515,842471,0.95,-0.16,-0.37,-35.5,10.2,-0.2,-2.3,53.8,-23.4,101.121,36.03,0,1,0,1,2,NONE,67,433
2026-05-27T23:35:49.560,842523,0.88,-0.22,-0.36,-41.0,10.0,1.9,-1.9,52.3,-24.4,101.12,36.03,0,1,0,1,2,NONE,94,761
2026-05-27T23:35:49.624,842575,0.88,-0.25,-0.35,-24.2,1.3,2.2,-2.3,51.4,-25.0,101.119,36.02,0,1,0,1,2,NONE,335,1927
2026-05-27T23:35:49.672,842623,0.97,-0.23,-0.28,-11.6,0.9,1.9,-2.4,51.5,-26.6,101.123,36.03,0,1,0,1,2,NONE,226,1479
2026-05-27T23:35:49.720,842671,0.94,-0.3,-0.28,-6.0,-10.8,-2.1,-2.5,50.8,-26.7,101.122,36.03,0,1,0,1,2,NONE,196,1341
2026-05-27T23:35:49.768,842723,0.9,-0.3,-0.26,-18.9,-7.9,-0.1,-2.9,50.3,-27.3,101.122,36.03,0,1,1,1,3,NONE,94,450
2026-05-27T23:35:49.821,842773,0.86,-0.26,-0.26,-9.1,-0.1,0.8,-2.6,49.4,-27.3,101.121,36.03,0,1,1,1,3,NONE,105,580
2026-05-27T23:35:49.865,842821,0.87,-0.3,-0.23,-15.5,0.4,2.2,-2.9,49.3,-28.3,101.122,36.04,0,1,1,1,3,NONE,103,746
2026-05-27T23:35:49.917,842873,0.86,-0.32,-0.22,-18.3,9.8,4.8,-3.4,48.2,-28.8,101.116,36.03,0,1,1,1,3,NONE,200,1043
2026-05-27T23:35:49.966,842925,0.88,-0.26,-0.22,-12.1,13.9,7.6,-2.4,48.2,-28.4,101.122,36.03,0,1,1,1,3,NONE,82,532
2026-05-27T23:35:50.009,842971,0.93,-0.21,-0.22,-4.5,8.2,12.0,-2.3,47.6,-28.0,101.12,36.03,0,1,1,1,3,NONE,157,881
2026-05-27T23:35:50.073,843023,0.96,-0.17,-0.09,16.4,-5.3,16.1,-2.1,47.4,-29.5,101.122,36.03,0,1,1,1,3,NONE,151,824
2026-05-27T23:35:50.122,843071,0.95,-0.19,-0.06,31.2,-2.3,22.9,-2.0,48.1,-29.2,101.12,36.03,0,1,1,1,3,NONE,92,503
2026-05-27T23:35:50.175,843123,1.0,-0.33,-0.34,39.9,28.6,17.3,-1.0,48.7,-28.8,101.12,36.03,0,1,1,1,3,NONE,212,1284
2026-05-27T23:35:50.221,843175,1.01,-0.22,-0.39,-4.4,22.8,8.7,-0.6,48.6,-27.2,101.121,36.03,0,1,1,1,3,NONE,105,757
2026-05-27T23:35:50.267,843223,0.97,-0.15,-0.24,27.5,8.2,10.4,0.0,48.5,-28.1,101.121,36.03,0,1,1,1,3,NONE,94,520
2026-05-27T23:35:50.313,843271,0.95,-0.13,-0.31,23.6,15.7,9.4,0.5,49.2,-26.6,101.121,36.03,0,1,1,1,3,NONE,92,530
2026-05-27T23:35:50.370,843323,0.94,-0.03,-0.34,27.8,3.3,3.5,0.2,50.0,-26.9,101.126,36.03,0,1,0,0,1,NONE,158,1102
2026-05-27T23:35:50.413,843373,0.93,-0.09,-0.3,34.2,2.2,-0.1,0.6,50.8,-25.9,101.123,36.03,0,1,0,0,1,NONE,160,838
2026-05-27T23:35:50.472,843421,0.94,-0.1,-0.3,25.4,-1.5,-1.2,0.5,51.6,-25.6,101.123,36.03,0,1,0,0,1,NONE,180,859
2026-05-27T23:35:50.520,843473,1.0,-0.06,-0.3,17.3,-0.7,0.3,0.4,52.1,-25.2,101.122,36.03,0,1,0,0,1,NONE,90,501
2026-05-27T23:35:50.569,843525,0.95,-0.03,-0.29,22.2,-7.5,3.8,-0.3,52.0,-24.4,101.118,36.03,0,1,0,0,1,NONE,64,370
2026-05-27T23:35:50.621,843571,0.9,-0.09,-0.22,16.8,-3.2,0.5,-0.1,52.4,-25.3,101.119,36.03,0,1,0,0,1,NONE,86,403
2026-05-27T23:35:50.671,843623,0.93,-0.06,-0.22,15.4,2.7,-2.2,-0.4,52.8,-25.2,101.122,36.03,0,1,0,1,2,NONE,50,270
2026-05-27T23:35:50.715,843671,0.92,-0.04,-0.23,9.9,-2.1,-3.8,-0.9,53.2,-24.0,101.123,36.03,0,1,0,1,2,NONE,26,113
2026-05-27T23:35:50.775,843724,0.9,-0.03,-0.19,6.3,4.4,-5.9,-0.7,53.0,-24.5,101.118,36.03,0,1,0,0,1,NONE,28,149
2026-05-27T23:35:50.825,843775,0.96,-0.03,-0.18,1.5,5.1,-9.4,-2.2,53.9,-24.7,101.121,36.03,0,1,0,0,1,NONE,40,109
2026-05-27T23:35:50.875,843823,0.93,-0.09,-0.19,-4.5,-1.4,-11.4,-1.5,53.7,-25.4,101.121,36.03,0,1,0,0,1,NONE,41,130
2026-05-27T23:35:50.925,843874,0.95,-0.04,-0.12,-10.4,0.0,-11.8,-2.9,53.5,-24.4,101.119,36.03,0,1,0,0,1,NONE,25,108
2026-05-27T23:35:50.972,843921,1.11,-0.13,-0.32,-29.7,17.3,-9.4,-2.6,53.2,-25.3,101.118,36.03,0,1,0,0,1,NONE,72,107
2026-05-27T23:35:51.019,843975,1.12,-0.23,-0.48,2.5,11.3,2.9,-2.5,52.8,-26.3,101.122,36.03,0,1,0,0,1,NONE,21,94
2026-05-27T23:35:51.071,844021,0.84,-0.19,-0.26,-11.3,-1.8,-3.8,-2.3,52.2,-25.6,101.119,36.02,0,1,0,0,1,NONE,22,110
2026-05-27T23:35:51.119,844071,0.89,-0.25,-0.38,-28.3,21.2,-6.3,-2.7,51.9,-27.1,101.116,36.02,0,1,0,0,1,NONE,28,112
2026-05-27T23:35:51.167,844123,0.86,-0.26,-0.3,-14.0,4.0,-4.0,-2.2,50.7,-27.8,101.119,36.03,0,1,0,0,1,NONE,66,390
2026-05-27T23:35:51.216,844175,0.92,-0.25,-0.27,-2.7,8.3,-0.1,-2.5,50.5,-26.9,101.118,36.03,0,1,0,0,1,NONE,80,471
2026-05-27T23:35:51.260,844221,0.95,-0.22,-0.26,-1.7,-4.0,-3.8,-2.6,50.5,-27.8,101.123,36.03,0,1,0,0,1,NONE,79,432
2026-05-27T23:35:51.324,844273,0.88,-0.25,-0.27,8.1,9.6,-4.7,-2.5,50.4,-26.6,101.119,36.02,0,1,0,0,1,NONE,93,538
2026-05-27T23:35:51.374,844322,0.86,-0.42,-0.25,-7.4,3.5,-1.0,-2.8,50.6,-27.7,101.121,36.03,0,1,0,1,2,NONE,76,456
2026-05-27T23:35:51.419,844373,0.9,-0.4,-0.32,-16.2,12.8,7.3,-2.8,49.5,-28.0,101.12,36.03,0,1,0,1,2,NONE,144,767
2026-05-27T23:35:51.468,844425,0.85,-0.35,-0.32,-33.0,7.9,9.2,-2.6,49.2,-27.7,101.119,36.03,0,1,0,0,1,NONE,231,1159
2026-05-27T23:35:51.516,844471,0.85,-0.22,-0.32,-31.2,7.6,11.4,-1.9,48.2,-29.4,101.12,36.03,0,1,0,0,1,NONE,132,683
2026-05-27T23:35:51.574,844524,0.88,-0.18,-0.24,-13.0,1.8,13.3,-2.2,47.3,-30.1,101.119,36.02,0,1,0,1,2,NONE,146,778
2026-05-27T23:35:51.613,844571,0.89,-0.2,-0.11,17.2,12.9,14.6,-1.3,46.5,-29.7,101.12,36.03,0,1,0,1,2,NONE,97,505
2026-05-27T23:35:51.660,844623,0.98,-0.2,-0.16,7.1,-7.0,15.4,-1.6,46.5,-30.5,101.122,36.03,0,1,0,0,1,NONE,247,1583
2026-05-27T23:35:51.725,844673,0.96,-0.08,-0.09,15.9,-6.5,20.1,-1.3,46.6,-29.3,101.121,36.03,0,1,0,0,1,NONE,209,1083
2026-05-27T23:35:51.771,844722,1.13,-0.39,-0.44,35.6,4.0,18.1,-1.6,46.8,-29.8,101.12,36.03,0,1,0,0,1,NONE,166,1055
2026-05-27T23:35:51.823,844773,0.91,-0.09,-0.28,-15.6,-2.9,-3.8,-2.1,46.6,-30.5,101.121,36.03,0,1,0,0,1,NONE,480,2477
2026-05-27T23:35:51.872,844825,1.11,-0.21,-0.33,38.6,-4.6,5.0,-2.4,47.0,-30.2,101.12,36.03,0,1,0,0,1,NONE,196,1216
2026-05-27T23:35:51.920,844871,0.97,-0.04,-0.29,43.3,-10.4,9.2,-2.2,47.7,-28.6,101.122,36.02,0,1,0,0,1,NONE,385,2635
2026-05-27T23:35:51.969,844924,0.83,-0.11,-0.25,43.2,-11.1,2.4,-3.1,48.8,-29.3,101.121,36.02,0,1,0,0,1,NONE,510,2845
2026-05-27T23:35:52.019,844971,0.9,-0.13,-0.24,23.4,-3.4,0.1,-2.9,49.7,-28.7,101.118,36.03,0,1,0,0,1,NONE,633,3178
2026-05-27T23:35:52.065,845024,0.97,-0.08,-0.25,12.3,-4.2,0.9,-3.7,49.7,-28.0,101.116,36.03,0,1,0,0,1,NONE,262,1659
2026-05-27T23:35:52.125,845075,0.94,-0.01,-0.21,25.6,-4.0,-0.1,-3.6,50.7,-27.8,101.122,36.03,0,1,0,0,1,NONE,123,752
2026-05-27T23:35:52.173,845122,0.92,-0.07,-0.2,13.0,8.1,-1.2,-3.9,51.0,-28.8,101.122,36.03,0,1,0,1,2,NONE,112,768
2026-05-27T23:35:52.221,845171,0.91,-0.11,-0.23,7.2,6.7,-2.4,-3.8,51.6,-27.2,101.122,36.03,0,1,0,1,2,NONE,89,497
2026-05-27T23:35:52.275,845223,0.92,-0.08,-0.19,5.9,11.8,-1.3,-4.3,51.6,-27.1,101.12,36.03,0,1,1,1,3,NONE,38,245
2026-05-27T23:35:52.324,845273,0.97,-0.06,-0.18,-6.3,9.0,-5.0,-4.0,51.7,-27.4,101.121,36.03,0,1,1,1,3,NONE,90,363
2026-05-27T23:35:52.367,845322,0.91,-0.02,-0.22,-21.6,9.4,-8.5,-4.4,51.4,-26.9,101.122,36.02,0,1,0,1,2,NONE,104,400
2026-05-27T23:35:52.415,845373,0.92,0.06,-0.22,-12.0,11.4,-9.2,-3.8,50.6,-28.0,101.121,36.03,0,1,0,1,2,NONE,45,144
2026-05-27T23:35:52.475,845425,0.99,-0.1,-0.16,-0.2,9.9,-10.4,-4.3,50.9,-28.2,101.12,36.02,0,1,0,1,2,NONE,75,102
2026-05-27T23:35:52.523,845471,1.02,-0.23,-0.47,-21.4,26.9,-9.1,-4.4,50.6,-29.4,101.119,36.02,0,1,0,1,2,NONE,91,97
2026-05-27T23:35:52.573,845523,1.04,-0.41,-0.34,-18.6,5.1,-2.1,-4.2,50.0,-29.4,101.119,36.02,0,1,0,0,1,NONE,66,374
2026-05-27T23:35:52.618,845571,0.87,-0.2,-0.29,-24.1,4.7,-0.5,-3.7,49.3,-30.0,101.119,36.02,0,1,0,0,1,NONE,69,299
2026-05-27T23:35:52.669,845623,0.96,-0.4,-0.32,-21.4,4.0,-2.6,-4.0,48.1,-30.0,101.121,36.02,0,1,0,0,1,NONE,43,206
2026-05-27T23:35:52.719,845675,0.91,-0.28,-0.24,-12.9,-4.2,-3.3,-4.5,47.2,-30.9,101.119,36.02,0,1,0,0,1,NONE,91,453
2026-05-27T23:35:52.767,845723,0.92,-0.27,-0.24,-3.1,-7.8,-4.2,-4.1,46.7,-31.1,101.122,36.02,0,1,0,0,1,NONE,87,489
2026-05-27T23:35:52.816,845771,0.86,-0.35,-0.26,-11.3,-4.7,-3.6,-4.2,46.7,-30.5,101.119,36.02,0,1,0,0,1,NONE,79,404
2026-05-27T23:35:52.875,845824,0.85,-0.28,-0.23,5.5,-4.0,-2.6,-5.0,45.9,-31.6,101.119,36.02,0,1,0,0,1,NONE,69,284
2026-05-27T23:35:52.923,845873,0.86,-0.34,-0.23,0.3,4.9,-0.5,-6.1,45.8,-30.9,101.122,36.02,0,1,0,0,1,NONE,23,114
2026-05-27T23:35:52.970,845921,0.9,-0.33,-0.21,-0.7,7.7,0.5,-5.5,45.5,-31.0,101.122,36.02,0,1,0,0,1,NONE,37,102
2026-05-27T23:35:53.019,845970,0.89,-0.32,-0.21,-4.0,7.0,4.3,-5.5,45.5,-31.0,101.121,36.02,0,1,0,0,1,NONE,23,104
2026-05-27T23:35:53.071,846022,0.87,-0.3,-0.21,-0.2,9.4,6.1,-5.7,44.9,-30.8,101.121,36.03,0,1,0,0,1,NONE,41,72
2026-05-27T23:35:53.118,846073,0.92,-0.31,-0.17,-2.7,13.1,8.6,-5.1,44.8,-31.7,101.123,36.03,0,1,0,0,1,NONE,53,240
2026-05-27T23:35:53.173,846124,0.92,-0.25,-0.24,2.0,10.6,11.7,-4.9,44.7,-32.2,101.118,36.02,0,1,0,0,1,NONE,35,142
2026-05-27T23:35:53.212,846173,0.94,-0.38,-0.16,13.0,-19.7,11.2,-5.9,45.2,-31.4,101.117,36.03,0,1,0,0,1,NONE,25,108
2026-05-27T23:35:53.262,846221,0.96,-0.06,-0.08,0.3,-6.2,17.2,-6.4,45.1,-31.3,101.123,36.02,0,1,0,0,1,NONE,64,122
2026-05-27T23:35:53.324,846273,1.05,-0.28,-0.23,24.6,0.5,13.1,-6.1,45.4,-31.8,101.119,36.03,0,1,0,0,1,NONE,27,135
2026-05-27T23:35:53.369,846325,0.96,-0.31,-0.28,4.0,11.2,8.9,-5.9,45.4,-30.1,101.119,36.03,0,1,0,0,1,NONE,28,135
2026-05-27T23:35:53.419,846371,1.09,-0.17,-0.28,26.9,-5.7,14.6,-6.1,45.3,-30.3,101.119,36.03,0,1,0,0,1,NONE,46,236
2026-05-27T23:35:53.473,846425,0.93,-0.14,-0.23,42.1,-7.9,18.5,-6.4,46.9,-30.7,101.121,36.02,0,1,0,0,1,NONE,26,135
2026-05-27T23:35:53.519,846471,0.91,-0.15,-0.25,38.1,-4.0,16.6,-6.5,47.7,-29.5,101.117,36.03,0,1,0,0,1,NONE,20,93
2026-05-27T23:35:53.566,846524,0.87,-0.12,-0.25,46.0,-2.4,14.5,-6.7,47.8,-29.7,101.12,36.03,0,0,0,0,0,NONE,15,84
2026-05-27T23:35:53.626,846574,0.88,-0.08,-0.2,48.5,-4.1,4.8,-6.9,49.6,-28.5,101.118,36.02,0,0,0,0,0,NONE,41,146
2026-05-27T23:35:53.674,846623,0.97,-0.14,-0.15,31.3,4.7,0.9,-7.0,50.5,-27.5,101.122,36.03,0,0,0,0,0,NONE,17,104
2026-05-27T23:35:53.722,846671,0.97,-0.09,-0.22,12.3,2.3,4.6,-7.4,50.7,-27.9,101.123,36.03,0,0,0,0,0,NONE,13,62
2026-05-27T23:35:53.773,846723,0.97,-0.06,-0.14,16.3,0.3,4.8,-7.3,51.3,-27.1,101.121,36.02,0,0,0,0,0,NONE,23,109
2026-05-27T23:35:53.820,846773,0.9,-0.11,-0.14,-6.8,12.3,3.9,-7.3,50.7,-27.1,101.12,36.02,0,0,0,0,0,NONE,37,196
2026-05-27T23:35:53.869,846822,0.94,-0.08,-0.22,-13.3,11.1,-1.0,-7.5,51.0,-28.3,101.12,36.02,0,0,0,0,0,NONE,43,217
2026-05-27T23:35:53.917,846873,0.94,-0.07,-0.18,-18.0,14.1,-2.3,-7.0,49.9,-28.0,101.118,36.03,0,0,0,0,0,NONE,54,410
2026-05-27T23:35:53.962,846925,0.98,-0.06,-0.16,-24.1,13.9,-3.5,-6.6,49.5,-28.3,101.123,36.03,0,0,0,0,0,NONE,75,508
2026-05-27T23:35:54.017,846971,0.97,-0.09,-0.18,-29.1,14.5,-3.6,-6.8,48.4,-28.7,101.123,36.03,0,0,0,0,0,NONE,46,301
2026-05-27T23:35:54.076,847023,0.99,-0.04,-0.18,-30.0,12.1,-1.6,-6.2,47.5,-29.3,101.119,36.03,0,1,0,0,1,NONE,50,369
2026-05-27T23:35:54.122,847071,0.95,-0.04,-0.16,-35.0,9.0,-1.9,-6.2,46.4,-30.0,101.12,36.03,0,1,0,0,1,NONE,50,311
2026-05-27T23:35:54.174,847123,0.93,-0.05,-0.14,-38.3,9.5,-0.7,-6.4,44.6,-30.0,101.119,36.03,0,1,1,1,3,NONE,50,262
2026-05-27T23:35:54.220,847174,1.16,-0.0,-0.46,-40.5,28.7,2.3,-5.5,43.4,-30.4,101.121,36.02,0,1,1,1,3,NONE,49,298
2026-05-27T23:35:54.270,847223,1.04,-0.22,-0.21,-5.7,2.4,-1.5,-5.4,41.4,-30.7,101.118,36.03,0,1,1,1,3,NONE,66,384
2026-05-27T23:35:54.318,847271,0.88,-0.34,-0.32,-56.5,8.0,-0.7,-5.5,41.6,-31.0,101.123,36.03,0,1,1,1,3,NONE,51,358
2026-05-27T23:35:54.372,847323,0.91,-0.25,-0.33,-37.7,8.7,-0.4,-5.3,39.7,-30.5,101.119,36.01,0,1,0,0,1,NONE,61,386
2026-05-27T23:35:54.419,847373,0.83,-0.29,-0.24,-30.8,0.3,-0.4,-5.5,38.1,-31.0,101.121,36.02,0,1,0,0,1,NONE,49,316
2026-05-27T23:35:54.472,847421,0.88,-0.3,-0.25,-22.6,4.5,0.6,-5.2,36.9,-31.2,101.122,36.03,0,1,0,1,2,NONE,39,261
2026-05-27T23:35:54.524,847473,0.86,-0.42,-0.24,-29.4,14.4,5.7,-5.2,36.1,-31.2,101.122,36.02,0,1,0,1,2,NONE,33,196
2026-05-27T23:35:54.576,847525,0.86,-0.32,-0.36,-50.6,15.5,2.1,-4.8,34.6,-32.3,101.121,36.02,0,1,0,0,1,NONE,27,174
2026-05-27T23:35:54.625,847571,1.0,-0.18,-0.26,-36.2,17.6,-0.8,-4.1,33.5,-31.4,101.122,36.02,0,1,0,0,1,NONE,30,100
2026-05-27T23:35:54.677,847623,0.97,-0.29,-0.18,-25.8,7.4,-2.7,-4.1,31.8,-32.3,101.123,36.03,0,0,0,0,0,NONE,31,168
2026-05-27T23:35:54.720,847671,0.91,-0.28,-0.14,-19.5,5.0,0.4,-3.3,31.5,-31.5,101.12,36.02,0,0,0,0,0,NONE,39,233
2026-05-27T23:35:54.766,847723,0.9,-0.32,-0.15,-16.5,3.5,1.8,-4.1,30.5,-32.1,101.12,36.02,0,0,0,0,0,NONE,59,326
2026-05-27T23:35:54.820,847774,0.88,-0.23,-0.19,-11.6,7.3,3.5,-4.0,29.7,-32.1,101.123,36.03,0,0,0,0,0,NONE,34,206
2026-05-27T23:35:54.863,847823,0.94,-0.36,-0.14,-5.3,4.5,1.0,-3.7,28.9,-30.9,101.121,36.02,0,0,0,0,0,NONE,24,111
2026-05-27T23:35:54.920,847871,0.93,-0.28,-0.17,-12.0,6.7,2.1,-3.4,28.6,-32.4,101.122,36.03,0,0,0,0,0,NONE,18,104
2026-05-27T23:35:54.973,847923,0.9,-0.3,-0.13,5.4,-1.6,3.0,-3.5,28.2,-31.0,101.119,36.02,0,0,0,0,0,NONE,17,86
2026-05-27T23:35:55.020,847973,0.91,-0.33,-0.12,7.0,3.4,5.9,-3.8,27.9,-31.5,101.12,36.02,0,0,0,0,0,NONE,20,81
2026-05-27T23:35:55.071,848021,0.91,-0.31,-0.15,-6.2,10.9,6.5,-3.6,28.4,-32.3,101.123,36.03,0,0,0,0,0,NONE,24,97
2026-05-27T23:35:55.121,848073,0.94,-0.36,-0.15,2.7,12.2,9.9,-4.0,28.3,-30.7,101.121,36.02,0,0,0,0,0,NONE,24,69
2026-05-27T23:35:55.166,848125,1.0,-0.31,-0.17,2.3,21.8,12.3,-3.3,27.7,-31.4,101.121,36.03,0,1,0,0,1,NONE,39,151
2026-05-27T23:35:55.221,848171,1.16,-0.35,-0.35,-14.2,44.0,15.6,-3.1,28.0,-30.2,101.118,36.03,0,1,0,0,1,NONE,37,233
2026-05-27T23:35:55.272,848223,1.14,-0.26,-0.25,12.5,6.5,9.8,-1.9,27.0,-29.0,101.119,36.02,0,0,0,0,0,NONE,38,179
2026-05-27T23:35:55.321,848271,0.92,-0.37,-0.39,2.7,13.9,25.3,-1.9,27.2,-30.6,101.118,36.02,0,0,0,0,0,NONE,53,188
2026-05-27T23:35:55.374,848323,0.93,-0.18,-0.45,15.5,-4.4,15.5,-2.5,27.1,-28.5,101.124,36.02,0,0,0,0,0,NONE,112,502
2026-05-27T23:35:55.422,848375,0.85,-0.2,-0.38,12.5,-0.5,15.1,-3.0,26.8,-29.2,101.121,36.02,0,0,0,0,0,NONE,27,143
2026-05-27T23:35:55.472,848423,0.96,-0.11,-0.38,17.1,-7.1,13.1,-3.0,27.5,-30.0,101.124,36.03,0,0,0,0,0,NONE,67,428
2026-05-27T23:35:55.522,848471,0.85,-0.2,-0.29,7.8,-10.6,15.4,-3.3,28.1,-29.3,101.123,36.02,0,0,0,0,0,NONE,83,454
2026-05-27T23:35:55.577,848523,0.94,-0.15,-0.37,2.9,-3.9,12.8,-3.6,28.8,-29.4,101.123,36.03,0,1,0,0,1,NONE,65,402
2026-05-27T23:35:55.622,848573,0.91,-0.12,-0.25,6.2,-17.6,14.6,-4.6,27.7,-29.5,101.125,36.02,0,1,0,0,1,NONE,156,858
2026-05-27T23:35:55.662,848621,0.86,-0.12,-0.16,8.4,-13.3,16.5,-4.9,27.8,-31.0,101.118,36.02,0,0,0,0,0,NONE,81,426
2026-05-27T23:35:55.723,848673,0.81,-0.09,-0.2,-10.1,-0.1,14.3,-5.3,28.1,-29.7,101.122,36.02,0,0,0,0,0,NONE,129,849
2026-05-27T23:35:55.775,848725,0.91,-0.06,-0.18,0.0,0.8,11.7,-5.4,27.9,-29.8,101.122,36.02,0,0,0,0,0,NONE,144,867
2026-05-27T23:35:55.821,848771,0.88,-0.14,-0.16,-11.7,4.3,7.1,-4.8,26.9,-29.8,101.117,36.02,0,0,0,0,0,NONE,65,403
2026-05-27T23:35:55.876,848825,0.94,-0.12,-0.19,-10.7,4.7,8.4,-5.6,26.8,-29.7,101.119,36.02,0,0,0,0,0,NONE,129,827
2026-05-27T23:35:55.917,848871,0.91,-0.07,-0.13,-15.6,1.8,6.3,-5.8,26.1,-29.4,101.118,36.02,0,0,0,0,0,NONE,131,883
2026-05-27T23:35:55.963,848923,0.9,-0.09,-0.15,-14.5,10.5,6.2,-5.2,25.3,-28.7,101.121,36.02,0,0,0,0,0,NONE,90,662
2026-05-27T23:35:56.025,848975,0.96,-0.06,-0.14,-20.9,9.8,5.2,-5.4,25.3,-30.1,101.122,36.03,0,0,0,0,0,NONE,118,907
2026-05-27T23:35:56.060,849023,0.86,-0.09,-0.11,-14.5,5.9,4.1,-5.8,24.8,-29.4,101.122,36.02,0,0,0,0,0,NONE,264,1354
2026-05-27T23:35:56.108,849071,0.94,-0.03,-0.09,-12.3,19.8,-0.9,-5.4,23.7,-29.4,101.119,36.01,0,0,0,0,0,NONE,93,505
2026-05-27T23:35:56.172,849123,0.91,-0.11,-0.17,-12.3,21.4,-3.2,-4.7,23.3,-27.3,101.117,36.02,0,0,0,0,0,NONE,68,396
2026-05-27T23:35:56.220,849173,1.1,-0.08,-0.3,-14.8,41.4,-1.0,-4.2,23.0,-28.0,101.12,36.02,0,0,0,0,0,NONE,170,991
2026-05-27T23:35:56.272,849222,0.92,-0.18,-0.37,-19.7,36.0,3.7,-3.3,22.7,-27.1,101.117,36.02,0,1,0,0,1,NONE,118,713
2026-05-27T23:35:56.320,849273,0.99,-0.16,-0.4,-35.4,52.3,-1.0,-1.8,22.6,-26.2,101.118,36.02,0,1,0,0,1,NONE,68,398
2026-05-27T23:35:56.365,849325,0.83,0.0,-0.42,0.6,49.0,-5.9,-1.0,21.7,-25.5,101.116,36.01,0,0,0,0,0,NONE,147,910
2026-05-27T23:35:56.416,849371,0.84,-0.24,-0.53,-13.1,56.9,-7.4,0.8,21.1,-23.3,101.119,36.01,0,0,0,0,0,NONE,49,308
2026-05-27T23:35:56.462,849423,0.86,-0.13,-0.5,-3.7,39.4,-9.3,1.8,21.6,-23.3,101.119,36.02,0,0,0,0,0,NONE,102,589
2026-05-27T23:35:56.522,849472,0.96,-0.32,-0.62,-26.8,28.9,-2.7,1.8,21.6,-23.3,101.116,36.02,0,0,0,0,0,NONE,193,1006
2026-05-27T23:35:56.574,849523,0.99,-0.25,-0.64,-21.2,8.5,-5.2,4.9,20.3,-22.5,101.117,36.02,0,0,0,0,0,NONE,102,666
2026-05-27T23:35:56.626,849575,1.06,-0.32,-0.62,-20.0,-2.3,-1.2,4.9,19.9,-21.2,101.119,36.02,0,0,0,0,0,NONE,91,563
2026-05-27T23:35:56.671,849623,1.1,-0.39,-0.64,-17.5,-6.0,3.1,5.5,20.0,-20.9,101.12,36.01,0,0,0,0,0,NONE,86,504
2026-05-27T23:35:56.720,849671,1.07,-0.38,-0.58,-28.8,-18.1,2.3,4.6,19.0,-19.9,101.118,36.03,0,0,0,0,0,NONE,115,545
2026-05-27T23:35:56.764,849723,0.91,-0.33,-0.4,-27.0,-23.6,2.9,3.5,17.9,-22.1,101.118,36.02,0,1,0,1,2,NONE,46,294
2026-05-27T23:35:56.823,849773,0.62,-0.34,-0.31,-39.3,-38.1,6.8,2.4,17.7,-22.5,101.118,36.01,0,1,0,1,2,NONE,59,288
2026-05-27T23:35:56.866,849822,0.34,-0.15,-0.21,-39.1,-27.0,10.6,2.1,16.1,-22.2,101.122,36.02,0,1,0,0,1,NONE,92,504
2026-05-27T23:35:56.924,849873,0.37,-0.04,-0.22,-28.5,2.9,13.5,1.8,15.0,-22.0,101.12,36.01,0,1,0,0,1,NONE,43,199
2026-05-27T23:35:56.976,849925,0.71,-0.24,-0.34,-25.6,-1.2,11.8,1.5,14.2,-21.7,101.114,36.02,0,1,0,0,1,NONE,88,665
2026-05-27T23:35:57.021,849971,0.93,-0.25,-0.39,-18.3,2.8,8.1,1.3,13.0,-20.9,101.114,36.01,0,1,0,0,1,NONE,75,404
2026-05-27T23:35:57.068,850023,0.94,-0.31,-0.29,-3.6,1.2,7.3,1.3,13.3,-20.5,101.118,36.01,0,1,0,0,1,NONE,49,363
2026-05-27T23:35:57.117,850071,0.9,-0.27,-0.15,10.1,-3.5,7.9,0.1,13.3,-20.8,101.113,36.02,0,1,0,0,1,NONE,35,188
2026-05-27T23:35:57.168,850123,0.97,-0.25,-0.14,8.7,7.0,10.0,0.5,12.9,-20.6,101.12,36.01,0,1,0,0,1,NONE,39,193
2026-05-27T23:35:57.212,850175,0.94,-0.22,-0.19,13.1,-9.8,11.4,0.1,13.2,-21.2,101.116,36.02,0,1,0,0,1,NONE,53,272
2026-05-27T23:35:57.261,850223,0.95,-0.18,-0.11,35.8,-16.7,12.0,-0.6,13.8,-23.2,101.115,36.02,0,0,0,0,0,NONE,42,265
2026-05-27T23:35:57.309,850271,1.03,-0.46,-0.18,33.1,-1.5,15.4,-1.4,14.0,-22.8,101.117,36.01,0,0,0,0,0,NONE,78,461
2026-05-27T23:35:57.375,850323,1.01,-0.24,-0.3,-15.9,-0.6,17.8,-1.4,14.3,-24.0,101.114,36.01,0,1,0,0,1,NONE,73,439
2026-05-27T23:35:57.421,850373,1.13,-0.02,-0.32,40.1,-32.6,17.9,-1.8,14.1,-22.8,101.119,36.01,0,1,0,0,1,NONE,44,295
2026-05-27T23:35:57.472,850422,0.88,-0.13,-0.21,31.7,-15.8,8.1,-3.1,14.6,-24.2,101.119,36.02,0,1,0,0,1,NONE,55,236
2026-05-27T23:35:57.518,850473,0.88,-0.12,-0.3,31.5,-11.5,9.2,-3.6,15.5,-24.8,101.116,36.01,0,1,0,0,1,NONE,53,293
2026-05-27T23:35:57.566,850525,0.86,-0.17,-0.19,40.3,-12.3,6.4,-4.2,16.2,-26.6,101.118,36.02,0,1,0,0,1,NONE,56,364
2026-05-27T23:35:57.614,850571,1.02,-0.12,-0.12,30.9,-8.4,4.0,-4.6,16.9,-26.5,101.117,36.02,0,1,0,0,1,NONE,34,190
2026-05-27T23:35:57.668,850623,0.94,-0.14,-0.16,16.7,-6.8,4.4,-5.1,17.6,-28.0,101.12,36.02,0,1,0,1,2,NONE,44,266
2026-05-27T23:35:57.712,850671,0.9,-0.08,-0.16,24.0,-0.2,6.3,-5.2,18.2,-27.4,101.116,36.02,0,1,0,1,2,NONE,21,115
2026-05-27T23:35:57.775,850723,0.93,-0.1,-0.09,27.2,3.9,5.9,-6.0,19.0,-27.9,101.119,36.02,0,1,0,0,1,NONE,57,363
2026-05-27T23:35:57.823,850775,0.93,-0.1,-0.13,10.7,12.3,0.7,-5.3,19.0,-28.2,101.118,36.01,0,1,0,0,1,NONE,31,186
2026-05-27T23:35:57.873,850823,0.94,-0.1,-0.13,9.9,8.2,-1.9,-5.0,19.7,-27.0,101.118,36.02,0,0,0,0,0,NONE,32,172
2026-05-27T23:35:57.922,850871,0.93,-0.06,-0.11,13.1,11.5,-4.2,-4.9,19.7,-27.3,101.119,36.01,0,0,0,0,0,NONE,19,84
2026-05-27T23:35:57.970,850923,1.0,-0.13,-0.12,4.6,13.5,-5.2,-4.2,20.0,-27.4,101.117,36.02,0,1,0,1,2,NONE,17,65
2026-05-27T23:35:58.020,850971,0.98,-0.15,-0.13,-0.1,10.2,-6.3,-4.1,19.5,-27.2,101.117,36.02,0,1,0,1,2,NONE,17,63
2026-05-27T23:35:58.075,851023,0.95,-0.15,-0.07,-8.1,7.6,-3.8,-3.4,20.3,-27.5,101.119,36.02,0,1,0,1,2,NONE,17,73
2026-05-27T23:35:58.111,851073,0.94,-0.17,-0.07,-17.2,16.4,-3.8,-3.4,19.9,-27.2,101.12,36.01,0,1,0,1,2,NONE,47,306
2026-05-27T23:35:58.163,851121,1.11,-0.01,-0.29,-1.7,34.3,-1.2,-3.1,19.3,-25.9,101.12,36.01,0,1,0,1,2,NONE,45,241
2026-05-27T23:35:58.223,851173,1.1,-0.2,-0.29,-7.9,19.4,-2.6,-2.2,19.1,-25.5,101.116,36.01,0,1,0,1,2,NONE,36,243
2026-05-27T23:35:58.275,851225,1.0,-0.21,-0.29,-27.4,9.5,-4.7,-1.6,18.6,-25.5,101.117,36.02,0,1,0,1,2,NONE,91,526
2026-05-27T23:35:58.321,851271,0.89,-0.2,-0.29,-25.3,9.6,-3.8,-0.8,16.9,-24.9,101.118,36.01,0,1,0,1,2,NONE,26,160
2026-05-27T23:35:58.376,851325,0.87,-0.27,-0.29,-17.2,-0.4,-3.2,-0.7,16.9,-24.7,101.114,36.02,0,1,1,1,3,NONE,52,420
2026-05-27T23:35:58.416,851371,0.95,-0.25,-0.27,-9.6,2.7,0.5,-0.5,16.6,-24.4,101.116,36.01,0,1,1,1,3,NONE,107,748
2026-05-27T23:35:58.463,851423,0.86,-0.25,-0.25,-6.3,-4.8,-3.1,-0.5,16.7,-24.0,101.116,36.01,0,1,1,1,3,NONE,95,630
2026-05-27T23:35:58.512,851475,0.9,-0.26,-0.21,-17.9,1.3,-1.6,-0.8,16.7,-24.7,101.115,36.01,0,1,1,1,3,NONE,120,663
2026-05-27T23:35:58.560,851523,0.88,-0.23,-0.24,-9.3,1.8,3.3,-0.6,16.1,-24.3,101.115,36.01,0,1,0,0,1,NONE,55,345
2026-05-27T23:35:58.611,851571,0.89,-0.28,-0.23,1.0,4.4,4.8,-0.2,14.8,-23.4,101.118,36.01,0,1,0,0,1,NONE,142,876
2026-05-27T23:35:58.674,851623,0.92,-0.25,-0.21,10.6,4.3,8.7,-0.3,14.9,-23.2,101.119,36.01,0,1,0,1,2,NONE,155,797
2026-05-27T23:35:58.720,851673,0.94,-0.33,-0.15,3.9,2.6,6.2,-0.5,15.5,-24.5,101.116,36.01,0,1,0,1,2,NONE,198,1176
2026-05-27T23:35:58.768,851721,0.94,-0.24,-0.17,6.9,-3.2,7.7,0.4,14.8,-22.6,101.118,36.01,0,1,0,1,2,NONE,86,434
2026-05-27T23:35:58.818,851773,0.95,-0.19,-0.13,25.0,-5.6,10.1,-0.4,15.0,-24.2,101.118,36.0,0,1,0,1,2,NONE,53,318
2026-05-27T23:35:58.866,851825,0.91,-0.23,-0.16,14.8,-0.4,10.4,-1.2,15.3,-23.7,101.116,36.01,0,1,0,0,1,NONE,78,568
2026-05-27T23:35:58.920,851871,1.04,-0.49,-0.25,16.3,12.8,8.2,-1.6,15.8,-24.7,101.116,36.02,0,1,0,0,1,NONE,79,307
2026-05-27T23:35:58.978,851923,1.0,-0.1,-0.29,-16.6,12.9,15.7,-1.3,15.8,-23.7,101.115,36.01,0,1,0,0,1,NONE,100,439
2026-05-27T23:35:59.008,851971,1.02,-0.11,-0.26,21.6,1.8,16.7,-1.1,15.2,-24.3,101.115,36.01,0,1,0,0,1,NONE,118,560
2026-05-27T23:35:59.072,852023,0.93,-0.08,-0.31,31.3,-0.1,16.4,-1.1,15.1,-23.3,101.116,36.01,0,1,0,0,1,NONE,193,1179
2026-05-27T23:35:59.122,852075,0.83,-0.06,-0.28,31.0,-5.1,8.5,-1.5,15.7,-24.1,101.115,36.02,0,1,0,0,1,NONE,182,1134
2026-05-27T23:35:59.172,852123,0.86,-0.11,-0.24,35.6,-3.1,3.0,-1.5,16.9,-24.6,101.117,36.01,0,1,0,0,1,NONE,108,788
2026-05-27T23:35:59.221,852171,1.01,-0.07,-0.15,13.9,6.8,-0.7,-1.7,17.4,-25.2,101.117,36.01,0,1,0,0,1,NONE,247,1451
2026-05-27T23:35:59.275,852223,0.96,-0.11,-0.35,9.2,3.2,2.0,-2.2,17.8,-25.4,101.114,36.01,0,1,0,0,1,NONE,175,1089
2026-05-27T23:35:59.322,852273,0.94,0.01,-0.19,21.1,-3.1,6.1,-1.9,18.0,-25.6,101.116,36.01,0,1,0,0,1,NONE,58,330
2026-05-27T23:35:59.361,852321,0.96,-0.08,-0.2,15.9,1.5,4.4,-2.3,18.1,-25.9,101.114,36.01,0,1,0,0,1,NONE,225,1112
2026-05-27T23:35:59.414,852373,0.93,-0.03,-0.2,14.0,2.3,1.1,-2.5,18.1,-26.6,101.115,36.01,0,1,0,0,1,NONE,138,912
2026-05-27T23:35:59.475,852425,0.92,-0.07,-0.18,7.2,2.7,-3.6,-2.5,18.8,-26.6,101.12,36.01,0,1,1,1,3,NONE,129,715
2026-05-27T23:35:59.517,852471,0.94,-0.11,-0.16,0.4,5.2,-6.1,-2.4,18.6,-27.5,101.114,36.01,0,1,1,1,3,NONE,83,510
2026-05-27T23:35:59.572,852523,0.95,-0.07,-0.17,-4.2,3.4,-7.3,-2.2,18.6,-27.9,101.116,36.01,0,1,1,1,3,NONE,123,651
2026-05-27T23:35:59.618,852571,0.94,-0.18,-0.11,-15.4,3.7,-11.9,-1.9,18.7,-27.0,101.116,36.01,0,1,1,1,3,NONE,161,962
2026-05-27T23:35:59.672,852623,1.21,-0.1,-0.27,-38.8,21.9,-6.7,-1.6,17.9,-25.9,101.119,36.01,0,1,0,1,2,NONE,129,829
2026-05-27T23:35:59.716,852675,0.97,-0.02,-0.16,-3.8,1.8,0.6,-0.9,17.5,-25.7,101.12,36.0,0,1,0,1,2,NONE,115,681
2026-05-27T23:35:59.773,852723,1.0,-0.14,-0.2,-21.2,18.7,-5.5,-0.6,16.9,-25.1,101.117,36.01,0,1,1,1,3,NONE,152,960
2026-05-27T23:35:59.817,852771,0.92,-0.12,-0.24,-0.8,3.5,-7.0,-0.3,16.7,-23.9,101.118,36.01,0,1,1,1,3,NONE,137,854
2026-05-27T23:35:59.870,852823,0.87,-0.24,-0.31,-6.6,4.6,-5.9,0.6,15.9,-24.1,101.117,36.01,0,1,1,1,3,NONE,125,761
2026-05-27T23:35:59.916,852873,0.83,-0.33,-0.34,-32.4,6.7,-5.6,1.2,15.3,-24.5,101.12,36.01,0,1,1,1,3,NONE,198,1149
2026-05-27T23:35:59.972,852921,0.89,-0.27,-0.28,-21.2,5.0,1.5,1.8,14.3,-24.3,101.115,36.01,0,1,0,0,1,NONE,156,1064
2026-05-27T23:36:00.022,852973,1.03,-0.22,-0.28,-4.1,0.8,-1.4,1.9,14.3,-24.3,101.117,36.01,0,1,0,0,1,NONE,145,951
2026-05-27T23:36:00.068,853025,0.84,-0.26,-0.24,-7.7,-6.2,-2.6,2.2,13.8,-22.3,101.114,36.0,0,1,0,0,1,NONE,122,779
2026-05-27T23:36:00.117,853071,0.87,-0.3,-0.21,-8.9,3.8,0.2,1.8,13.5,-22.0,101.115,36.01,0,1,0,0,1,NONE,146,1022
2026-05-27T23:36:00.169,853123,0.86,-0.35,-0.22,-9.7,11.0,4.6,2.0,13.1,-22.3,101.118,36.01,0,1,0,0,1,NONE,90,573
2026-05-27T23:36:00.219,853171,0.9,-0.32,-0.22,-3.1,7.5,13.4,2.3,12.6,-22.9,101.116,36.01,0,1,0,0,1,NONE,81,529
2026-05-27T23:36:00.261,853223,0.92,-0.18,-0.16,-1.9,11.2,17.5,2.2,12.5,-22.5,101.116,36.01,0,1,0,0,1,NONE,64,401
2026-05-27T23:36:00.325,853275,1.01,-0.21,-0.16,4.2,3.1,8.9,1.9,12.8,-21.7,101.116,36.01,0,1,0,0,1,NONE,63,272
2026-05-27T23:36:00.372,853323,0.94,-0.22,-0.14,8.8,-5.4,7.4,1.7,12.6,-21.4,101.116,36.01,0,1,0,0,1,NONE,111,712
2026-05-27T23:36:00.422,853371,0.94,-0.2,-0.11,19.6,-8.9,9.8,1.4,12.2,-22.5,101.115,36.01,0,1,0,0,1,NONE,137,894
2026-05-27T23:36:00.472,853423,1.09,-0.44,-0.27,18.2,11.7,4.2,1.3,13.0,-21.8,101.12,36.01,0,1,1,1,3,NONE,227,1039
2026-05-27T23:36:00.518,853473,1.05,-0.12,-0.29,-12.0,5.5,12.1,1.4,12.7,-22.4,101.117,36.0,0,1,1,1,3,NONE,164,1007
2026-05-27T23:36:00.571,853522,1.01,-0.19,-0.25,37.1,-5.7,15.7,0.4,12.9,-22.6,101.115,36.01,0,1,1,1,3,NONE,272,1389
2026-05-27T23:36:00.612,853573,0.87,-0.11,-0.3,24.6,-0.4,15.6,0.3,13.1,-22.9,101.118,36.01,0,1,1,1,3,NONE,190,845
2026-05-27T23:36:00.676,853625,0.8,-0.06,-0.31,23.2,-3.7,6.3,0.3,13.7,-23.2,101.118,36.01,0,1,0,0,1,NONE,97,574
2026-05-27T23:36:00.716,853671,0.89,-0.08,-0.23,32.2,3.5,4.0,-0.7,14.3,-22.8,101.116,36.01,0,1,0,0,1,NONE,74,366
2026-05-27T23:36:00.772,853723,1.03,-0.09,-0.23,11.4,6.5,1.5,-0.2,14.8,-24.5,101.119,36.01,0,1,0,0,1,NONE,71,200
2026-05-27T23:36:00.821,853771,0.91,-0.11,-0.26,9.1,1.5,4.9,-0.2,14.9,-24.2,101.118,36.01,0,1,0,0,1,NONE,27,145
2026-05-27T23:36:00.869,853824,0.94,-0.06,-0.18,12.8,1.4,3.8,-0.6,15.8,-24.7,101.12,36.01,0,1,0,0,1,NONE,56,272
2026-05-27T23:36:00.921,853874,0.92,-0.1,-0.18,3.1,8.1,3.4,-0.7,15.9,-23.1,101.118,36.01,0,1,0,0,1,NONE,60,326
2026-05-27T23:36:00.963,853923,0.93,-0.09,-0.19,-4.3,10.4,1.0,-1.0,15.3,-24.2,101.12,36.01,0,1,0,1,2,NONE,34,217
2026-05-27T23:36:01.022,853971,0.94,-0.15,-0.19,-14.0,13.8,-1.7,-0.2,14.6,-22.1,101.116,36.0,0,1,0,1,2,NONE,86,524
2026-05-27T23:36:01.074,854023,1.01,-0.11,-0.14,-23.9,4.6,-3.1,-0.5,14.6,-24.0,101.117,36.0,0,1,0,0,1,NONE,124,732
2026-05-27T23:36:01.122,854073,0.99,-0.18,-0.15,-35.0,5.6,-2.9,0.1,14.2,-22.5,101.118,36.01,0,1,0,0,1,NONE,61,401
2026-05-27T23:36:01.169,854122,0.97,-0.19,-0.18,-56.5,9.0,-7.5,0.4,13.2,-21.4,101.115,36.01,0,1,0,0,1,NONE,154,813
2026-05-27T23:36:01.221,854173,1.02,-0.0,-0.5,-31.7,18.2,3.7,0.9,12.1,-19.9,101.117,36.0,0,1,0,0,1,NONE,92,445
2026-05-27T23:36:01.265,854225,0.9,-0.19,-0.21,-28.1,0.1,1.5,0.5,11.5,-19.1,101.115,36.01,0,1,0,0,1,NONE,120,591
2026-05-27T23:36:01.317,854271,0.89,-0.1,-0.31,-24.8,11.2,2.2,1.1,10.8,-17.6,101.119,36.01,0,1,0,0,1,NONE,101,491
2026-05-27T23:36:01.362,854325,0.93,-0.27,-0.27,-14.8,2.0,3.1,1.2,10.0,-17.1,101.119,36.01,0,1,0,1,2,NONE,88,460
2026-05-27T23:36:01.424,854371,1.02,-0.27,-0.29,-11.0,2.1,-2.0,0.8,9.9,-17.8,101.117,36.01,0,1,0,1,2,NONE,76,460
2026-05-27T23:36:01.474,854423,0.85,-0.27,-0.19,-17.0,-6.2,-2.1,1.4,10.1,-16.2,101.116,36.01,0,1,1,1,3,NONE,54,376
2026-05-27T23:36:01.523,854475,0.87,-0.2,-0.18,-12.3,4.5,-0.4,1.2,9.4,-16.8,101.118,36.01,0,1,1,1,3,NONE,173,732
2026-05-27T23:36:01.571,854523,0.89,-0.27,-0.19,-10.5,10.2,2.6,0.9,9.9,-17.2,101.115,36.0,0,1,1,1,3,NONE,78,370
2026-05-27T23:36:01.620,854571,0.91,-0.39,-0.19,-23.9,11.3,6.8,1.3,9.3,-16.0,101.118,36.01,0,1,1,1,3,NONE,30,180
2026-05-27T23:36:01.668,854624,0.9,-0.35,-0.23,-28.6,9.9,5.3,1.2,8.7,-15.7,101.117,36.01,0,1,1,1,3,NONE,31,116
2026-05-27T23:36:01.721,854673,0.83,-0.28,-0.22,-34.7,9.0,10.8,1.2,7.8,-14.8,101.117,36.01,0,1,1,1,3,NONE,18,99
2026-05-27T23:36:01.769,854722,0.92,-0.22,-0.23,-16.5,14.5,18.2,0.7,7.3,-13.8,101.114,36.01,0,1,1,1,3,NONE,20,96
2026-05-27T23:36:01.819,854773,0.96,-0.19,-0.18,0.5,7.3,10.6,1.2,7.0,-13.0,101.116,36.0,0,1,1,1,3,NONE,94,510
2026-05-27T23:36:01.863,854825,1.08,-0.33,-0.23,13.4,15.0,7.5,0.7,7.8,-14.3,101.118,36.01,0,1,1,1,3,NONE,68,325
2026-05-27T23:36:01.909,854871,0.97,-0.33,-0.2,-7.2,1.8,9.4,0.8,7.0,-12.9,101.118,36.0,0,1,1,1,3,NONE,53,262
2026-05-27T23:36:01.974,854923,1.0,-0.16,-0.27,12.8,0.5,14.0,0.3,7.3,-12.8,101.117,36.01,0,1,0,0,1,NONE,63,401
2026-05-27T23:36:02.022,854971,0.91,-0.1,-0.26,14.6,-10.0,5.1,-0.1,7.3,-13.8,101.116,36.0,0,1,0,0,1,NONE,84,387
2026-05-27T23:36:02.070,855023,0.95,-0.02,-0.33,23.5,0.7,4.3,-0.8,7.8,-14.3,101.116,36.0,0,1,0,0,1,NONE,43,253
2026-05-27T23:36:02.120,855075,0.86,-0.01,-0.22,18.5,-12.5,-1.2,-1.1,8.1,-14.9,101.117,36.01,0,1,0,0,1,NONE,74,452
2026-05-27T23:36:02.167,855123,1.05,-0.19,-0.17,8.1,6.2,-0.6,-0.9,8.6,-15.8,101.115,36.01,0,1,0,0,1,NONE,39,233
2026-05-27T23:36:02.219,855171,0.89,-0.09,-0.28,4.3,-1.2,4.0,-0.7,8.7,-14.9,101.117,36.01,0,1,0,0,1,NONE,46,243
2026-05-27T23:36:02.268,855223,0.94,-0.11,-0.14,1.5,1.6,4.5,-1.3,9.1,-14.6,101.121,36.01,0,1,0,0,1,NONE,41,251
2026-05-27T23:36:02.317,855273,0.92,-0.04,-0.18,4.9,8.0,2.7,-1.9,8.5,-16.7,101.115,36.0,0,1,0,0,1,NONE,44,261
2026-05-27T23:36:02.363,855322,0.91,-0.11,-0.15,4.9,7.6,-3.1,-1.6,8.7,-15.7,101.113,36.01,0,1,0,0,1,NONE,142,895
2026-05-27T23:36:02.424,855373,0.98,-0.08,-0.15,11.6,9.9,-6.8,-1.0,8.9,-15.5,101.116,36.0,0,1,0,0,1,NONE,122,764
2026-05-27T23:36:02.472,855425,1.01,-0.21,-0.07,0.6,-4.0,-8.2,-0.4,9.1,-15.5,101.118,36.0,0,1,0,0,1,NONE,111,816
2026-05-27T23:36:02.521,855471,0.93,-0.29,-0.04,-22.2,-8.2,-6.8,-0.6,9.3,-14.9,101.114,36.0,0,1,0,0,1,NONE,144,996
2026-05-27T23:36:02.573,855523,1.27,0.1,-0.32,1.5,28.5,-3.2,-1.1,9.4,-15.7,101.115,36.01,0,1,0,0,1,NONE,91,636
2026-05-27T23:36:02.617,855571,0.98,-0.13,-0.49,33.3,-17.9,-9.0,-0.0,9.6,-15.0,101.114,36.0,0,1,0,0,1,NONE,121,670
2026-05-27T23:36:02.665,855623,0.7,-0.16,-0.2,15.3,-3.4,-12.6,-0.4,10.2,-16.4,101.113,36.0,0,1,0,0,1,NONE,140,957
2026-05-27T23:36:02.715,855675,0.95,-0.16,-0.23,13.6,-0.3,-3.5,0.1,9.8,-16.7,101.118,36.0,0,1,0,0,1,NONE,112,673
2026-05-27T23:36:02.767,855723,1.0,-0.33,-0.24,25.6,-0.4,-1.0,0.3,9.9,-16.7,101.12,36.0,0,1,0,0,1,NONE,105,651
2026-05-27T23:36:02.814,855771,0.9,-0.19,-0.24,16.3,-7.9,-3.2,0.4,10.1,-18.6,101.12,36.0,0,1,0,0,1,NONE,169,959
2026-05-27T23:36:02.874,855823,0.88,-0.24,-0.23,7.1,-4.0,-4.2,0.3,10.9,-17.6,101.119,36.0,0,1,0,0,1,NONE,84,591
2026-05-27T23:36:02.922,855873,0.9,-0.26,-0.2,10.3,0.3,-2.1,0.5,10.7,-18.6,101.117,36.01,0,1,0,0,1,NONE,64,362
2026-05-27T23:36:02.971,855921,0.92,-0.24,-0.18,14.7,3.5,-0.5,0.4,10.7,-17.7,101.116,36.0,0,1,0,0,1,NONE,58,373
2026-05-27T23:36:03.023,855973,0.89,-0.26,-0.19,27.0,6.5,3.4,0.9,10.9,-17.4,101.115,36.0,0,1,0,0,1,NONE,48,294
2026-05-27T23:36:03.071,856025,0.95,-0.26,-0.14,20.4,6.5,7.2,0.4,10.9,-18.6,101.115,36.0,0,1,0,1,2,NONE,24,138
2026-05-27T23:36:03.120,856071,0.93,-0.24,-0.1,20.0,1.8,8.1,0.6,11.7,-18.2,101.115,35.99,0,1,0,1,2,NONE,27,151
2026-05-27T23:36:03.171,856123,0.94,-0.23,-0.1,31.1,-3.2,10.9,0.2,11.5,-17.4,101.115,36.0,0,1,1,1,3,NONE,15,83
2026-05-27T23:36:03.211,856171,0.74,-0.02,-0.13,32.6,-1.7,13.7,-0.5,12.6,-19.2,101.118,36.01,0,1,1,1,3,NONE,71,168
2026-05-27T23:36:03.278,856223,1.21,-0.28,-0.54,72.0,37.0,1.1,-0.2,12.8,-19.4,101.116,36.0,0,1,0,0,1,NONE,35,163
2026-05-27T23:36:03.324,856274,0.97,-0.16,-0.3,-8.1,6.8,5.4,-0.4,13.7,-21.4,101.115,35.99,0,1,0,0,1,NONE,19,116
2026-05-27T23:36:03.372,856323,0.9,-0.19,-0.34,16.3,18.2,13.3,-0.3,14.3,-20.7,101.117,36.0,0,1,0,0,1,NONE,14,83
2026-05-27T23:36:03.420,856371,1.01,0.03,-0.23,42.2,-3.7,19.7,-0.5,14.0,-20.7,101.12,36.0,0,1,0,0,1,NONE,31,129
2026-05-27T23:36:03.468,856420,0.92,-0.05,-0.32,0.2,8.4,12.3,-0.5,14.0,-20.7,101.12,36.0,0,1,0,0,1,NONE,54,260
2026-05-27T23:36:03.517,856475,0.91,0.02,-0.3,33.9,-4.0,12.9,-1.3,15.0,-20.7,101.114,35.99,0,1,0,0,1,NONE,191,1163
2026-05-27T23:36:03.568,856521,0.93,0.01,-0.25,40.3,-0.4,8.6,-1.6,15.0,-21.3,101.117,36.0,0,1,0,0,1,NONE,103,633
2026-05-27T23:36:03.615,856571,0.89,-0.02,-0.32,32.8,1.9,0.4,-1.0,15.8,-21.5,101.112,36.0,0,1,0,0,1,NONE,55,277
2026-05-27T23:36:03.668,856621,0.95,-0.02,-0.31,34.7,4.8,-2.1,-1.3,16.4,-23.4,101.117,36.0,0,0,0,0,0,NONE,50,249
2026-05-27T23:36:03.709,856673,0.91,-0.01,-0.27,29.1,-0.7,-4.4,-1.3,17.3,-23.5,101.117,36.0,0,0,0,0,0,NONE,52,203
2026-05-27T23:36:03.772,856722,0.95,-0.01,-0.25,32.0,2.4,-7.3,-1.2,17.7,-22.8,101.117,36.0,0,0,0,0,0,NONE,36,170
2026-05-27T23:36:03.821,856773,0.9,0.02,-0.23,30.9,2.3,-10.2,-0.8,18.3,-24.1,101.114,36.0,0,0,0,0,0,NONE,36,215
2026-05-27T23:36:03.875,856823,0.93,-0.04,-0.26,31.9,5.4,-10.8,-0.8,19.4,-24.4,101.114,36.0,0,0,0,0,0,NONE,27,169
2026-05-27T23:36:03.918,856871,0.95,-0.02,-0.25,24.0,4.2,-14.6,-0.4,20.0,-23.4,101.117,36.0,0,0,0,0,0,NONE,48,241
2026-05-27T23:36:03.969,856923,0.98,-0.0,-0.21,24.0,3.0,-17.0,-0.1,20.7,-25.2,101.112,36.0,0,0,0,0,0,NONE,49,246
2026-05-27T23:36:04.016,856971,0.94,-0.16,-0.19,13.0,1.6,-15.3,-0.2,21.2,-25.5,101.119,35.99,0,0,0,0,0,NONE,64,392
2026-05-27T23:36:04.069,857023,0.96,-0.1,-0.2,-3.0,7.0,-11.7,0.4,21.5,-24.3,101.118,36.0,0,0,0,0,0,NONE,63,368
2026-05-27T23:36:04.109,857073,1.08,-0.01,-0.27,-2.0,12.6,-5.9,1.0,21.3,-24.8,101.12,36.0,0,0,0,0,0,NONE,153,689
2026-05-27T23:36:04.172,857121,0.98,-0.07,-0.33,1.2,9.5,2.8,1.6,22.0,-23.9,101.115,35.99,0,0,0,0,0,NONE,67,393
2026-05-27T23:36:04.223,857173,0.94,-0.28,-0.34,-15.7,8.5,-9.9,1.2,21.0,-23.1,101.122,36.0,0,0,0,0,0,NONE,119,640
2026-05-27T23:36:04.273,857225,0.99,-0.1,-0.41,-9.8,8.2,-7.0,2.1,20.5,-23.3,101.117,35.99,0,0,0,0,0,NONE,58,322
2026-05-27T23:36:04.321,857271,0.89,-0.23,-0.34,-7.4,-3.8,-8.4,1.9,20.5,-22.3,101.121,36.0,0,0,0,0,0,NONE,40,254
2026-05-27T23:36:04.373,857323,0.92,-0.26,-0.35,-3.0,-4.2,-6.4,2.3,20.2,-23.0,101.119,35.99,0,0,0,0,0,NONE,47,177
2026-05-27T23:36:04.414,857371,0.95,-0.23,-0.25,15.4,-10.4,-4.8,2.1,20.5,-23.6,101.117,36.0,0,0,0,0,0,NONE,27,152
2026-05-27T23:36:04.474,857423,0.84,-0.28,-0.28,2.6,-5.1,-6.7,2.0,20.5,-24.8,101.115,35.99,0,0,0,0,0,NONE,42,213
2026-05-27T23:36:04.520,857475,0.87,-0.28,-0.2,-3.5,-1.6,-4.6,1.9,20.4,-24.4,101.114,35.99,0,0,0,0,0,NONE,95,484
2026-05-27T23:36:04.574,857523,0.93,-0.32,-0.27,-19.0,7.0,-0.1,2.0,20.2,-24.8,101.112,35.99,0,0,0,0,0,NONE,33,202
2026-05-27T23:36:04.612,857571,0.9,-0.25,-0.23,-19.6,5.2,3.4,2.4,19.3,-24.6,101.116,35.99,0,0,0,0,0,NONE,39,169
2026-05-27T23:36:04.674,857623,0.9,-0.25,-0.21,-22.4,7.5,10.5,2.6,18.6,-24.6,101.118,35.99,0,1,0,0,1,NONE,68,425
2026-05-27T23:36:04.723,857673,0.91,-0.21,-0.19,-23.2,9.5,11.5,2.4,17.8,-22.7,101.116,35.99,0,1,0,0,1,NONE,97,587
2026-05-27T23:36:04.770,857721,0.96,-0.25,-0.15,-10.9,1.9,13.9,2.7,17.0,-23.3,101.111,35.99,0,1,0,0,1,NONE,125,714
2026-05-27T23:36:04.818,857773,0.93,-0.16,-0.13,-10.0,-0.5,14.3,2.5,16.3,-22.8,101.117,35.99,0,1,0,0,1,NONE,119,663
2026-05-27T23:36:04.874,857825,0.94,-0.2,-0.09,-1.3,-3.2,14.4,2.5,15.6,-21.4,101.118,35.99,0,0,0,0,0,NONE,120,584
2026-05-27T23:36:04.918,857871,1.03,-0.25,-0.16,9.9,-4.3,11.2,2.4,15.3,-22.2,101.118,35.99,0,0,0,0,0,NONE,146,655
2026-05-27T23:36:04.975,857923,0.96,-0.37,-0.34,-4.8,4.3,4.8,2.3,16.2,-21.7,101.119,35.99,0,0,0,0,0,NONE,90,476
2026-05-27T23:36:05.010,857971,1.07,-0.23,-0.34,-13.4,5.4,8.4,2.1,15.6,-22.6,101.116,35.99,0,0,0,0,0,NONE,85,501
2026-05-27T23:36:05.075,858023,0.94,-0.11,-0.35,17.5,-4.1,13.4,1.7,15.4,-21.6,101.116,35.99,0,0,0,0,0,NONE,193,1066
2026-05-27T23:36:05.125,858075,0.85,-0.06,-0.24,29.4,-5.1,10.8,1.5,15.2,-22.7,101.114,35.99,0,0,0,0,0,NONE,80,418
2026-05-27T23:36:05.173,858123,0.83,-0.12,-0.26,11.1,5.4,5.1,0.4,15.3,-22.7,101.12,35.99,0,0,0,0,0,NONE,88,482
2026-05-27T23:36:05.220,858171,0.98,-0.14,-0.2,1.8,3.2,2.4,1.0,15.8,-21.7,101.118,36.0,0,0,0,0,0,NONE,206,1220
2026-05-27T23:36:05.267,858223,0.92,-0.07,-0.27,0.3,3.6,5.3,1.0,16.0,-21.2,101.117,36.0,0,0,0,0,0,NONE,206,1055
2026-05-27T23:36:05.321,858273,0.97,-0.08,-0.23,2.5,3.1,7.6,1.3,15.6,-21.5,101.115,35.99,0,0,0,0,0,NONE,133,839
2026-05-27T23:36:05.372,858321,0.9,-0.12,-0.19,-0.5,7.9,6.7,1.0,15.8,-21.3,101.114,35.99,0,0,0,0,0,NONE,169,1035
2026-05-27T23:36:05.409,858373,0.93,-0.13,-0.19,-9.9,12.0,6.9,1.2,15.6,-20.7,101.118,35.99,0,0,0,0,0,NONE,171,1060
2026-05-27T23:36:05.475,858425,0.94,-0.11,-0.17,-16.8,13.2,4.0,1.1,15.2,-20.3,101.114,35.99,0,0,0,0,0,NONE,133,815
2026-05-27T23:36:05.522,858471,0.97,-0.11,-0.14,-16.9,10.9,-1.6,1.1,15.0,-20.0,101.119,35.99,0,0,0,0,0,NONE,130,878
2026-05-27T23:36:05.570,858523,0.96,-0.11,-0.16,-21.2,9.2,-3.7,1.5,14.5,-19.2,101.115,35.99,0,0,0,0,0,NONE,127,711
2026-05-27T23:36:05.621,858571,0.98,-0.2,-0.11,-35.3,1.5,-0.2,2.1,14.1,-18.3,101.12,35.99,0,0,0,0,0,NONE,130,842
2026-05-27T23:36:05.669,858623,0.91,-0.15,-0.08,-37.7,4.7,-0.7,1.8,13.5,-17.7,101.116,35.99,0,1,0,1,2,NONE,125,844
2026-05-27T23:36:05.719,858675,0.99,0.0,-0.39,-37.2,13.3,-2.0,1.8,12.9,-17.8,101.119,35.99,0,1,0,1,2,NONE,101,670
2026-05-27T23:36:05.762,858723,1.31,-0.13,-0.49,10.5,13.0,2.6,2.2,12.8,-16.6,101.12,35.99,0,1,0,1,2,NONE,102,561
2026-05-27T23:36:05.815,858771,0.8,-0.31,-0.31,-4.0,0.3,-6.3,2.8,12.7,-17.5,101.118,35.99,0,1,0,1,2,NONE,102,568
2026-05-27T23:36:05.867,858823,0.86,-0.22,-0.32,-29.0,10.7,-3.8,3.1,12.9,-15.7,101.116,35.99,0,1,0,0,1,NONE,98,538
2026-05-27T23:36:05.923,858873,0.91,-0.23,-0.25,-16.3,7.3,-2.3,3.3,12.6,-14.2,101.117,35.99,0,1,0,0,1,NONE,49,240
2026-05-27T23:36:05.971,858921,0.92,-0.34,-0.27,-9.3,10.9,-2.3,3.8,12.5,-14.4,101.117,35.99,0,0,0,0,0,NONE,62,282
2026-05-27T23:36:06.022,858973,0.94,-0.23,-0.27,-15.8,4.4,-1.4,4.3,13.5,-14.0,101.116,35.99,0,0,0,0,0,NONE,70,418
2026-05-27T23:36:06.067,859025,0.89,-0.33,-0.23,-21.1,6.0,0.7,3.9,12.6,-12.2,101.118,35.99,0,1,0,0,1,NONE,60,325
2026-05-27T23:36:06.115,859071,0.89,-0.28,-0.2,-26.9,2.7,3.7,3.8,12.4,-12.6,101.117,35.99,0,1,0,0,1,NONE,58,348
2026-05-27T23:36:06.168,859123,0.91,-0.3,-0.21,-25.9,5.8,8.5,3.8,13.1,-12.1,101.116,35.99,0,0,0,0,0,NONE,113,511
2026-05-27T23:36:06.212,859171,0.92,-0.29,-0.2,-27.0,5.6,12.3,4.2,12.0,-12.3,101.116,35.99,0,0,0,0,0,NONE,37,210
2026-05-27T23:36:06.264,859223,0.9,-0.29,-0.18,-30.9,5.3,14.5,4.5,11.3,-11.6,101.119,35.99,0,1,0,0,1,NONE,72,428
2026-05-27T23:36:06.325,859275,0.9,-0.25,-0.15,-35.0,7.0,16.2,3.8,11.2,-11.0,101.116,35.99,0,1,0,0,1,NONE,57,324
2026-05-27T23:36:06.372,859323,0.92,-0.22,-0.14,-21.2,7.2,16.1,3.4,10.7,-11.2,101.117,35.99,0,1,0,0,1,NONE,66,397
2026-05-27T23:36:06.421,859371,0.92,-0.19,-0.17,-10.3,4.7,18.0,3.4,10.3,-9.7,101.114,35.99,0,1,0,0,1,NONE,31,197
2026-05-27T23:36:06.473,859423,0.92,-0.22,-0.12,-3.6,7.4,15.7,2.5,9.9,-10.2,101.117,35.99,0,0,0,0,0,NONE,139,740
2026-05-27T23:36:06.521,859471,1.0,-0.22,-0.16,11.6,6.4,16.6,2.9,9.3,-10.2,101.119,35.99,0,0,0,0,0,NONE,50,267
2026-05-27T23:36:06.569,859523,0.91,-0.33,-0.22,5.2,11.0,5.7,2.8,9.3,-9.6,101.114,35.99,0,1,0,0,1,NONE,82,394
2026-05-27T23:36:06.614,859573,1.09,-0.15,-0.32,9.9,19.0,4.8,3.0,9.3,-9.1,101.121,35.99,0,1,0,0,1,NONE,35,200
2026-05-27T23:36:06.663,859621,1.0,-0.12,-0.28,20.1,1.2,6.1,2.8,9.4,-11.2,101.119,35.99,0,0,0,0,0,NONE,67,348
2026-05-27T23:36:06.713,859673,0.95,-0.04,-0.35,47.5,0.7,7.6,3.1,10.2,-11.5,101.119,35.98,0,0,0,0,0,NONE,40,202
2026-05-27T23:36:06.774,859725,0.9,-0.06,-0.26,36.7,-1.2,1.2,2.5,10.3,-12.8,101.117,35.99,0,0,0,0,0,NONE,64,342
2026-05-27T23:36:06.807,859771,0.97,-0.17,-0.21,20.1,9.8,0.9,1.9,12.0,-13.4,101.113,35.99,0,0,0,0,0,NONE,140,745
2026-05-27T23:36:06.875,859825,0.92,-0.02,-0.36,13.9,7.0,1.3,1.9,11.5,-13.7,101.116,35.99,0,1,0,1,2,NONE,111,703
2026-05-27T23:36:06.922,859871,0.95,-0.04,-0.2,25.7,-5.1,2.5,1.9,11.5,-13.7,101.118,35.99,0,1,0,1,2,NONE,118,1080
2026-05-27T23:36:06.974,859923,0.91,-0.08,-0.25,24.2,0.5,-0.7,2.0,12.4,-15.3,101.118,35.99,0,1,0,1,2,NONE,121,712
2026-05-27T23:36:07.016,859974,0.89,-0.13,-0.22,8.5,1.7,-1.9,1.7,12.7,-15.3,101.116,35.99,0,1,0,1,2,NONE,122,581
2026-05-27T23:36:07.068,860023,0.94,-0.12,-0.2,4.2,4.7,-5.8,1.9,13.6,-16.5,101.118,35.99,0,1,0,1,2,NONE,176,1029
2026-05-27T23:36:07.112,860071,0.91,-0.06,-0.19,7.4,1.1,-9.5,2.6,13.0,-16.8,101.118,35.99,0,1,0,1,2,NONE,154,788
2026-05-27T23:36:07.168,860123,0.99,-0.17,-0.17,-2.3,1.7,-7.9,2.0,13.5,-17.0,101.117,35.99,0,1,0,0,1,NONE,69,435
2026-05-27T23:36:07.211,860173,0.91,-0.19,-0.15,-7.3,-1.9,-9.2,2.1,13.3,-17.5,101.119,35.99,0,1,0,0,1,NONE,83,599
2026-05-27T23:36:07.271,860221,1.05,-0.14,-0.33,-26.2,14.0,-1.3,2.8,12.8,-16.2,101.116,35.99,0,1,1,1,3,NONE,114,672
2026-05-27T23:36:07.321,860273,1.04,-0.14,-0.34,-0.7,-3.8,2.9,2.5,13.6,-16.4,101.115,35.99,0,1,1,1,3,NONE,146,764
2026-05-27T23:36:07.373,860325,0.89,-0.24,-0.24,-24.6,-3.9,-0.9,2.3,13.0,-16.3,101.118,35.99,0,1,1,1,3,NONE,88,583
2026-05-27T23:36:07.418,860371,0.96,-0.08,-0.29,-18.0,0.4,3.5,2.7,12.6,-14.4,101.12,35.99,0,1,1,1,3,NONE,211,1252
2026-05-27T23:36:07.476,860425,0.92,-0.3,-0.2,-12.1,-2.6,1.6,2.8,12.2,-16.3,101.114,35.99,0,1,0,0,1,NONE,107,736
2026-05-27T23:36:07.521,860471,0.96,-0.22,-0.23,-17.2,-2.3,0.0,3.0,11.5,-15.1,101.117,35.99,0,1,0,0,1,NONE,84,481
2026-05-27T23:36:07.570,860523,0.92,-0.19,-0.19,-19.3,-4.7,3.0,2.6,11.8,-14.7,101.115,35.99,0,1,0,0,1,NONE,69,443
2026-05-27T23:36:07.624,860574,0.86,-0.21,-0.18,-19.2,-3.9,3.7,2.5,11.2,-15.0,101.117,35.99,0,1,0,0,1,NONE,67,386
2026-05-27T23:36:07.673,860623,0.98,-0.23,-0.14,-13.0,0.7,6.8,2.5,10.7,-14.4,101.118,35.99,0,0,0,0,0,NONE,43,211
2026-05-27T23:36:07.721,860671,0.91,-0.22,-0.17,-15.7,1.6,10.9,1.8,10.6,-13.0,101.118,35.99,0,0,0,0,0,NONE,139,850
2026-05-27T23:36:07.771,860723,0.9,-0.14,-0.11,0.6,0.7,8.4,1.9,9.9,-13.8,101.115,35.99,0,1,0,0,1,NONE,127,900
2026-05-27T23:36:07.820,860773,0.78,-0.17,-0.07,0.8,-3.6,4.9,1.4,9.9,-14.3,101.118,35.99,0,1,0,0,1,NONE,58,446
2026-05-27T23:36:07.873,860821,0.69,-0.24,-0.03,6.0,-2.4,0.4,1.6,9.8,-14.7,101.114,35.99,0,1,0,0,1,NONE,45,278
2026-05-27T23:36:07.916,860873,0.52,-0.04,-0.05,18.9,-8.2,-0.8,0.7,10.1,-14.7,101.119,35.99,0,1,0,0,1,NONE,127,670
2026-05-27T23:36:07.976,860925,0.62,-0.09,-0.07,28.3,1.2,6.7,0.9,10.2,-14.2,101.119,35.99,0,0,0,0,0,NONE,48,257
2026-05-27T23:36:08.007,860971,0.58,-0.08,-0.13,49.9,0.7,5.9,0.4,10.9,-16.3,101.119,35.99,0,0,0,0,0,NONE,77,200
2026-05-27T23:36:08.075,861025,0.76,-0.16,-0.21,8.9,-0.5,22.0,-0.1,11.3,-17.6,101.117,35.98,0,1,0,1,2,NONE,160,1063
2026-05-27T23:36:08.120,861071,0.51,0.18,0.04,57.3,5.4,27.3,-0.3,11.2,-18.0,101.119,35.99,0,1,0,1,2,NONE,120,467
2026-05-27T23:36:08.176,861123,0.65,-0.26,0.01,35.6,21.6,2.7,0.5,12.1,-19.9,101.123,35.99,0,1,0,0,1,NONE,82,507
2026-05-27T23:36:08.222,861174,1.27,-0.55,-0.32,23.9,29.4,-5.7,1.3,11.8,-21.6,101.122,35.98,0,1,0,0,1,NONE,123,524
2026-05-27T23:36:08.272,861223,3.3,-0.36,-1.07,-203.1,40.5,-14.3,3.4,13.9,-21.8,101.123,35.98,0,1,0,0,1,NONE,80,448
2026-05-27T23:36:08.312,861271,1.1,0.11,-0.73,49.5,27.1,16.9,3.4,13.3,-18.2,101.123,35.99,0,1,0,0,1,NONE,67,329
2026-05-27T23:36:08.365,861323,1.23,-0.55,-0.57,-4.8,64.8,5.7,4.8,13.9,-19.3,101.123,35.98,0,0,0,0,0,NONE,95,312
2026-05-27T23:36:08.413,861373,1.24,0.0,-0.41,19.2,11.4,6.8,5.1,12.9,-19.8,101.122,35.98,0,0,0,0,0,NONE,63,413
2026-05-27T23:36:08.471,861421,1.12,-0.05,-0.17,-25.5,7.3,7.4,4.4,13.1,-19.4,101.121,35.99,0,0,0,0,0,NONE,89,507
2026-05-27T23:36:08.521,861473,0.6,-0.12,-0.14,-23.5,-22.0,4.8,4.1,13.0,-18.1,101.122,35.98,0,0,0,0,0,NONE,98,576
2026-05-27T23:36:08.572,861525,0.93,-0.17,-0.2,-16.0,2.5,8.4,3.3,11.8,-19.8,101.119,35.98,0,1,0,0,1,NONE,40,234
2026-05-27T23:36:08.616,861571,0.92,-0.13,-0.26,-35.6,-23.8,13.0,3.1,10.9,-17.5,101.123,35.98,0,1,0,0,1,NONE,68,287
2026-05-27T23:36:08.666,861623,0.89,-0.01,-0.24,-9.2,-13.3,0.9,2.1,9.9,-17.7,101.12,35.99,0,0,0,0,0,NONE,107,543
2026-05-27T23:36:08.720,861671,0.85,-0.06,-0.33,-10.1,10.0,0.6,1.1,10.1,-19.0,101.12,35.98,0,0,0,0,0,NONE,58,325
2026-05-27T23:36:08.764,861723,0.95,-0.15,-0.39,21.1,3.8,3.6,1.8,9.9,-19.2,101.12,35.98,0,1,0,0,1,NONE,60,322
2026-05-27T23:36:08.825,861774,0.78,-0.32,-0.02,5.7,-19.3,4.8,1.3,9.4,-19.0,101.121,35.99,0,1,0,0,1,NONE,43,236
2026-05-27T23:36:08.873,861823,1.0,-0.18,-0.29,-27.2,12.1,0.9,1.1,8.9,-19.4,101.121,35.98,0,1,0,0,1,NONE,32,198
2026-05-27T23:36:08.921,861871,0.92,-0.26,-0.2,-21.3,-13.4,0.2,-0.1,9.3,-17.6,101.119,35.98,0,1,0,0,1,NONE,73,412
2026-05-27T23:36:08.969,861923,0.9,-0.21,-0.2,-13.7,-4.6,-1.8,0.0,8.8,-17.0,101.12,35.99,0,1,0,1,2,NONE,79,434
2026-05-27T23:36:09.022,861973,0.96,-0.22,-0.1,-17.2,-7.7,-0.5,-0.6,8.2,-18.2,101.124,35.99,0,1,0,1,2,NONE,129,681
2026-05-27T23:36:09.066,862021,0.94,-0.21,-0.07,-9.6,-4.6,-2.7,-0.9,8.1,-16.9,101.122,35.99,0,1,0,1,2,NONE,69,398
2026-05-27T23:36:09.114,862073,0.95,-0.24,-0.14,-9.1,-1.9,-3.8,-0.9,8.2,-18.1,101.117,35.99,0,1,0,1,2,NONE,197,1083
2026-05-27T23:36:09.167,862125,0.93,-0.25,-0.07,-18.9,0.4,-4.2,-1.2,7.1,-18.1,101.12,35.99,0,1,0,0,1,NONE,226,1603
2026-05-27T23:36:09.216,862171,0.95,-0.24,-0.14,-19.7,3.1,-3.4,-0.8,7.2,-17.0,101.12,35.98,0,1,0,0,1,NONE,194,977
2026-05-27T23:36:09.273,862225,0.88,-0.28,-0.05,-16.1,3.1,-0.4,-2.0,6.9,-17.0,101.125,35.99,0,1,0,0,1,NONE,126,661
2026-05-27T23:36:09.322,862271,0.91,-0.31,-0.06,-20.1,13.9,4.5,-0.9,7.4,-16.9,101.119,35.98,0,1,0,0,1,NONE,127,668
2026-05-27T23:36:09.374,862323,0.92,-0.29,-0.06,-6.9,17.3,5.9,-1.4,6.1,-15.9,101.122,35.98,0,1,0,0,1,NONE,83,452
2026-05-27T23:36:09.418,862374,0.98,-0.17,-0.01,-8.7,12.2,4.2,-1.3,5.3,-16.7,101.118,35.98,0,1,0,0,1,NONE,193,1017
2026-05-27T23:36:09.470,862423,0.94,-0.16,-0.0,10.6,1.6,9.0,-1.5,5.1,-14.8,101.124,35.99,0,1,0,0,1,NONE,189,845
2026-05-27T23:36:09.518,862471,1.09,-0.29,-0.11,35.9,21.9,12.2,-1.8,5.3,-16.2,101.121,35.98,0,1,0,0,1,NONE,81,438
2026-05-27T23:36:09.568,862523,1.0,-0.48,-0.27,-19.1,14.9,-1.5,-1.3,5.1,-17.1,101.122,35.99,0,1,0,0,1,NONE,334,1588
2026-05-27T23:36:09.612,862573,1.06,-0.05,-0.18,20.2,6.3,17.3,-2.1,4.6,-17.0,101.124,35.98,0,1,0,0,1,NONE,304,1497
2026-05-27T23:36:09.659,862621,0.95,-0.24,-0.22,30.7,0.9,16.4,-2.1,4.4,-16.8,101.123,35.98,0,1,0,0,1,NONE,257,1647
2026-05-27T23:36:09.723,862673,0.86,-0.11,-0.3,16.7,9.4,13.4,-2.1,4.3,-17.8,101.123,35.98,0,1,0,0,1,NONE,352,1857
2026-05-27T23:36:09.769,862725,0.85,-0.07,-0.28,22.8,5.5,9.1,-3.4,4.3,-17.7,101.12,35.99,0,1,0,0,1,NONE,192,1160
2026-05-27T23:36:09.821,862771,0.93,-0.07,-0.23,7.7,13.8,7.4,-3.6,4.9,-18.7,101.121,35.98,0,1,0,0,1,NONE,152,759
2026-05-27T23:36:09.865,862825,1.01,-0.17,-0.24,-14.2,10.1,7.3,-3.3,3.7,-18.0,101.118,35.98,0,1,0,0,1,NONE,87,584
2026-05-27T23:36:09.918,862871,0.96,-0.06,-0.2,-3.5,7.8,9.9,-3.7,4.0,-16.5,101.119,35.99,0,1,0,0,1,NONE,161,1163
2026-05-27T23:36:09.966,862923,0.92,-0.15,-0.22,-14.2,19.3,14.2,-3.5,4.1,-16.5,101.12,35.98,0,1,0,0,1,NONE,131,862
2026-05-27T23:36:10.014,862975,0.92,-0.1,-0.22,-16.1,8.2,9.6,-4.0,2.4,-15.5,101.121,35.98,0,1,0,0,1,NONE,228,1383
2026-05-27T23:36:10.073,863023,0.91,-0.11,-0.18,-25.6,14.6,7.6,-3.9,2.8,-15.5,101.12,35.98,0,1,0,0,1,NONE,141,869
2026-05-27T23:36:10.122,863071,0.9,-0.12,-0.2,-30.5,17.7,3.2,-3.3,1.8,-15.2,101.121,35.98,0,1,0,0,1,NONE,127,816
2026-05-27T23:36:10.174,863123,0.91,-0.13,-0.18,-31.2,17.0,-1.6,-3.8,1.2,-13.1,101.117,35.97,0,1,0,0,1,NONE,89,657
2026-05-27T23:36:10.217,863173,0.93,-0.21,-0.21,-36.9,13.9,-4.6,-3.1,0.5,-11.4,101.119,35.97,0,1,0,0,1,NONE,70,466
2026-05-27T23:36:10.265,863221,1.0,-0.18,-0.19,-47.2,11.8,-6.5,-3.3,0.4,-10.5,101.124,35.98,0,1,0,0,1,NONE,126,664
2026-05-27T23:36:10.314,863273,1.03,-0.24,-0.13,-43.3,-0.5,-4.3,-2.6,0.0,-8.6,101.121,35.97,0,1,0,0,1,NONE,157,963
2026-05-27T23:36:10.362,863325,1.09,-0.16,-0.25,-47.2,13.0,0.5,-2.1,-0.5,-5.4,101.122,35.98,0,1,1,1,3,NONE,104,688
2026-05-27T23:36:10.414,863371,1.04,-0.13,-0.39,-17.6,14.8,-2.2,-2.7,-1.9,-2.8,101.121,35.97,0,1,1,1,3,NONE,91,492
2026-05-27T23:36:10.473,863423,0.92,-0.2,-0.47,-8.8,-5.2,-6.0,-2.4,-1.5,-3.4,101.125,35.98,0,1,1,1,3,NONE,146,893
2026-05-27T23:36:10.522,863471,0.81,-0.2,-0.28,-25.4,11.3,-15.1,-1.5,-1.5,-1.9,101.121,35.98,0,1,1,1,3,NONE,202,1340
2026-05-27T23:36:10.572,863523,0.86,-0.32,-0.35,-40.3,15.7,-9.1,-1.2,-1.2,-0.8,101.122,35.97,0,1,0,1,2,NONE,71,568
2026-05-27T23:36:10.622,863575,0.89,-0.34,-0.28,-22.5,12.1,3.1,-1.1,-1.5,1.1,101.125,35.98,0,1,0,1,2,NONE,158,881
2026-05-27T23:36:10.666,863623,0.91,-0.29,-0.27,-33.2,8.6,5.9,-1.2,-1.2,1.7,101.122,35.98,0,1,0,0,1,NONE,198,1244
2026-05-27T23:36:10.717,863671,0.9,-0.28,-0.29,-13.8,13.7,4.0,-1.3,-1.1,2.1,101.122,35.98,0,1,0,0,1,NONE,116,721
2026-05-27T23:36:10.762,863723,0.87,-0.28,-0.25,-10.8,2.7,6.1,-1.8,-1.4,3.3,101.12,35.97,0,1,0,0,1,NONE,250,1309
2026-05-27T23:36:10.815,863773,0.89,-0.39,-0.25,-22.2,7.1,6.7,-1.6,-0.8,4.2,101.119,35.98,0,1,0,0,1,NONE,220,1280
2026-05-27T23:36:10.864,863821,0.89,-0.36,-0.2,-27.8,3.3,11.1,-2.6,-0.8,6.2,101.124,35.99,0,1,0,0,1,NONE,227,1251
2026-05-27T23:36:10.923,863873,0.89,-0.29,-0.2,-32.8,3.1,13.8,-2.3,-0.4,7.8,101.123,35.97,0,1,0,0,1,NONE,211,1377
2026-05-27T23:36:10.975,863925,0.88,-0.29,-0.18,-20.8,6.4,17.9,-2.6,-0.3,8.3,101.122,35.98,0,1,0,0,1,NONE,176,1172
2026-05-27T23:36:11.021,863971,0.89,-0.28,-0.22,-14.3,9.8,20.6,-3.6,0.2,9.2,101.117,35.98,0,1,0,0,1,NONE,172,1056
2026-05-27T23:36:11.071,864023,0.95,-0.27,-0.2,-5.2,10.2,20.9,-4.6,0.4,7.9,101.121,35.97,0,1,0,1,2,NONE,210,1168
2026-05-27T23:36:11.115,864071,0.92,-0.25,-0.13,-5.1,3.2,20.4,-5.7,0.3,10.2,101.125,35.98,0,1,0,1,2,NONE,145,854
2026-05-27T23:36:11.163,864123,0.96,-0.29,-0.08,2.8,-0.6,19.5,-5.9,0.3,10.5,101.122,35.98,0,1,0,0,1,NONE,171,944
2026-05-27T23:36:11.216,864175,1.05,-0.35,-0.22,17.0,11.2,18.2,-6.0,-0.1,9.9,101.118,35.97,0,1,0,0,1,NONE,139,985
2026-05-27T23:36:11.264,864223,1.0,-0.23,-0.41,-8.9,11.0,8.0,-6.2,-0.1,10.8,101.119,35.98,0,1,0,0,1,NONE,174,994
2026-05-27T23:36:11.316,864271,0.94,-0.21,-0.29,-30.8,4.2,6.8,-7.0,1.4,12.0,101.121,35.98,0,1,0,0,1,NONE,160,895
2026-05-27T23:36:11.374,864323,0.94,-0.12,-0.3,8.7,-1.2,17.9,-6.8,1.1,12.0,101.12,35.97,0,1,0,0,1,NONE,172,1092
2026-05-27T23:36:11.423,864373,0.92,-0.08,-0.23,0.1,-5.3,13.8,-7.0,1.1,12.5,101.122,35.98,0,1,0,0,1,NONE,115,707
2026-05-27T23:36:11.472,864421,0.93,-0.07,-0.24,-4.3,-5.9,5.6,-7.4,1.6,11.5,101.121,35.98,0,1,0,1,2,NONE,78,448
2026-05-27T23:36:11.522,864473,0.99,-0.15,-0.2,-4.6,-3.8,3.1,-7.5,1.4,13.8,101.121,35.98,0,1,0,1,2,NONE,162,1194
2026-05-27T23:36:11.579,864525,0.9,-0.16,-0.24,-19.1,0.7,8.6,-7.4,2.5,13.7,101.121,35.98,0,1,0,0,1,NONE,132,951
2026-05-27T23:36:11.618,864571,0.92,-0.11,-0.2,-18.4,4.0,12.5,-7.2,2.4,13.1,101.121,35.98,0,1,0,0,1,NONE,191,1096
2026-05-27T23:36:11.666,864623,0.98,-0.05,-0.18,-10.6,3.1,9.3,-7.8,2.5,14.5,101.125,35.98,0,1,0,0,1,NONE,141,763
2026-05-27T23:36:11.718,864671,0.91,-0.15,-0.13,-9.8,3.8,7.0,-8.2,2.7,14.0,101.12,35.98,0,1,0,0,1,NONE,106,755
2026-05-27T23:36:11.763,864723,0.91,-0.15,-0.18,-15.7,13.8,1.8,-8.0,3.2,14.3,101.122,35.97,0,1,0,0,1,NONE,121,836
2026-05-27T23:36:11.824,864774,0.94,-0.12,-0.18,-17.0,11.0,-2.0,-7.9,3.2,15.9,101.118,35.98,0,1,0,0,1,NONE,68,399
2026-05-27T23:36:11.871,864823,0.94,-0.19,-0.13,-25.3,8.2,-4.5,-7.3,4.5,16.2,101.116,35.97,0,1,0,0,1,NONE,49,370
2026-05-27T23:36:11.921,864871,0.96,-0.23,-0.1,-38.6,7.5,-2.0,-8.1,4.9,17.2,101.123,35.98,0,1,0,0,1,NONE,95,503
2026-05-27T23:36:11.972,864923,0.91,-0.23,-0.16,-42.8,13.1,-2.3,-8.3,6.1,20.4,101.124,35.97,0,1,0,1,2,NONE,46,272
2026-05-27T23:36:12.018,864973,1.1,-0.17,-0.2,-47.5,19.3,-0.5,-8.5,7.0,19.7,101.123,35.98,0,1,0,1,2,NONE,119,738
2026-05-27T23:36:12.065,865022,0.98,-0.06,-0.27,-32.2,6.2,0.4,-8.4,8.3,21.1,101.121,35.98,0,1,1,1,3,NONE,212,1326
2026-05-27T23:36:12.119,865073,1.03,-0.15,-0.34,-19.7,11.2,-2.1,-8.6,9.5,21.9,101.121,35.97,0,1,1,1,3,NONE,192,1424
2026-05-27T23:36:12.175,865125,0.78,-0.16,-0.21,-14.7,-1.2,-7.4,-7.7,9.7,21.9,101.122,35.98,0,1,1,1,3,NONE,188,1270
2026-05-27T23:36:12.221,865171,0.86,-0.24,-0.33,-22.9,18.6,-5.1,-7.9,10.6,21.6,101.119,35.97,0,1,1,1,3,NONE,151,860
2026-05-27T23:36:12.269,865223,0.89,-0.3,-0.29,-17.9,15.9,0.7,-8.7,11.5,22.7,101.119,35.98,0,1,1,1,3,NONE,172,1200
2026-05-27T23:36:12.319,865271,0.96,-0.24,-0.23,-12.5,14.6,4.8,-9.3,12.5,23.9,101.123,35.97,0,1,1,1,3,NONE,217,1119
2026-05-27T23:36:12.370,865323,0.98,-0.23,-0.28,-3.7,9.0,2.6,-9.4,12.0,23.5,101.118,35.97,0,1,0,1,2,NONE,139,743
2026-05-27T23:36:12.420,865375,0.91,-0.23,-0.22,-11.4,1.6,1.1,-8.5,12.6,24.8,101.121,35.97,0,1,0,1,2,NONE,105,641
2026-05-27T23:36:12.473,865423,0.9,-0.28,-0.2,-7.1,5.4,0.2,-8.9,12.9,23.4,101.119,35.97,0,1,0,0,1,NONE,118,866
2026-05-27T23:36:12.520,865471,0.92,-0.29,-0.19,-5.3,5.1,5.1,-8.9,14.4,24.8,101.125,35.98,0,1,0,0,1,NONE,142,913
2026-05-27T23:36:12.563,865523,0.91,-0.3,-0.18,-6.2,5.2,11.0,-8.6,14.0,25.2,101.124,35.98,0,1,0,0,1,NONE,112,737
2026-05-27T23:36:12.620,865573,0.93,-0.25,-0.16,-0.8,4.6,12.1,-9.0,13.9,26.0,101.121,35.97,0,1,0,0,1,NONE,123,799
2026-05-27T23:36:12.656,865621,0.96,-0.25,-0.14,2.7,2.3,12.5,-9.5,14.2,24.3,101.125,35.97,0,1,0,1,2,NONE,72,423
2026-05-27T23:36:12.723,865673,0.9,-0.28,-0.14,-4.0,3.1,12.4,-9.8,14.1,26.2,101.119,35.97,0,1,0,1,2,NONE,109,670
2026-05-27T23:36:12.777,865725,0.98,-0.2,-0.12,13.7,-0.3,11.8,-9.8,14.7,25.7,101.122,35.98,0,1,0,1,2,NONE,109,565
2026-05-27T23:36:12.821,865771,0.92,-0.21,-0.12,23.7,-10.1,13.7,-9.6,14.5,25.7,101.121,35.97,0,1,0,1,2,NONE,79,438
2026-05-27T23:36:12.864,865823,1.04,-0.4,-0.39,28.2,15.4,6.9,-9.9,13.3,24.2,101.122,35.97,0,1,0,1,2,NONE,143,664
2026-05-27T23:36:12.921,865871,1.02,-0.23,-0.27,-24.2,-3.8,5.2,-9.1,12.5,25.0,101.123,35.98,0,1,0,1,2,NONE,46,265
2026-05-27T23:36:12.972,865923,0.85,-0.06,-0.35,7.3,-0.1,13.4,-9.8,13.8,24.8,101.121,35.98,0,1,0,0,1,NONE,41,217
2026-05-27T23:36:13.025,865975,0.87,-0.04,-0.19,40.9,-13.0,11.5,-9.3,13.3,24.5,101.12,35.97,0,1,0,0,1,NONE,63,354
2026-05-27T23:36:13.072,866023,0.92,-0.08,-0.25,12.0,6.2,1.2,-9.3,12.4,22.7,101.122,35.98,0,1,1,1,3,NONE,31,181
2026-05-27T23:36:13.122,866071,0.98,-0.05,-0.2,22.1,-7.0,-4.1,-9.0,12.9,23.9,101.119,35.97,0,1,1,1,3,NONE,26,156
2026-05-27T23:36:13.168,866123,0.99,-0.2,-0.21,2.8,0.9,1.3,-8.5,11.8,22.4,101.12,35.97,0,1,0,1,2,NONE,30,211
2026-05-27T23:36:13.222,866173,0.94,-0.08,-0.24,2.2,2.2,4.6,-8.3,11.7,23.3,101.122,35.97,0,1,0,1,2,NONE,32,165
2026-05-27T23:36:13.269,866221,0.9,-0.03,-0.19,12.5,-0.2,4.7,-8.1,12.0,23.3,101.12,35.97,0,1,1,1,3,NONE,32,173
2026-05-27T23:36:13.322,866273,0.92,-0.04,-0.25,20.4,-2.9,1.8,-8.2,11.9,24.0,101.121,35.98,0,1,1,1,3,NONE,73,376
2026-05-27T23:36:13.362,866325,0.89,-0.15,-0.12,-7.0,9.2,-1.6,-8.2,11.4,23.0,101.123,35.97,0,1,0,0,1,NONE,102,347
2026-05-27T23:36:13.416,866371,0.98,-0.18,-0.17,-17.8,28.4,-6.3,-7.8,12.0,22.4,101.121,35.97,0,1,0,0,1,NONE,41,226
2026-05-27T23:36:13.473,866423,0.97,-0.19,-0.13,-0.1,11.9,-2.7,-9.0,13.0,24.6,101.122,35.97,0,1,1,1,3,NONE,53,221
2026-05-27T23:36:13.522,866471,0.95,-0.18,-0.1,-12.6,11.4,-6.7,-8.9,12.3,23.2,101.119,35.97,0,1,1,1,3,NONE,74,151
2026-05-27T23:36:13.574,866523,1.22,-0.05,-0.28,5.7,24.4,-2.9,-8.9,13.3,23.4,101.121,35.98,0,1,1,1,3,NONE,25,182
2026-05-27T23:36:13.623,866575,0.94,-0.18,-0.28,4.0,2.9,-3.5,-8.9,13.8,25.6,101.125,35.97,0,1,1,1,3,NONE,73,386
2026-05-27T23:36:13.670,866623,0.97,-0.12,-0.42,-12.0,15.7,-0.4,-9.7,13.8,25.5,101.118,35.97,0,1,0,0,1,NONE,62,402
2026-05-27T23:36:13.723,866671,0.92,-0.22,-0.25,-12.9,-1.2,-1.3,-10.3,13.6,25.5,101.12,35.97,0,1,0,0,1,NONE,51,311
2026-05-27T23:36:13.766,866723,0.92,-0.16,-0.26,-12.0,-2.3,-2.9,-9.2,13.9,24.4,101.121,35.97,0,1,0,0,1,NONE,34,175
2026-05-27T23:36:13.823,866773,0.98,-0.27,-0.26,0.1,-4.3,1.0,-9.0,15.1,25.6,101.122,35.97,0,1,0,0,1,NONE,42,184
2026-05-27T23:36:13.860,866821,0.93,-0.16,-0.26,7.0,-7.1,-6.2,-8.6,14.9,25.3,101.121,35.97,0,1,0,1,2,NONE,99,263
2026-05-27T23:36:13.923,866873,0.88,-0.24,-0.24,3.5,-4.6,-4.2,-8.0,15.1,25.0,101.122,35.97,0,1,0,1,2,NONE,54,206
2026-05-27T23:36:13.971,866925,0.91,-0.25,-0.24,12.7,-1.8,-4.3,-7.5,14.9,25.4,101.119,35.97,0,1,0,0,1,NONE,37,171
2026-05-27T23:36:14.021,866971,0.9,-0.28,-0.19,11.1,1.7,-2.6,-7.5,14.9,23.8,101.122,35.97,0,1,0,0,1,NONE,72,358
2026-05-27T23:36:14.072,867023,0.92,-0.18,-0.17,15.6,0.4,1.8,-7.1,14.4,24.5,101.122,35.97,0,1,0,1,2,NONE,63,291
2026-05-27T23:36:14.117,867071,0.93,-0.22,-0.16,14.7,4.9,10.4,-7.2,14.1,24.3,101.118,35.97,0,1,0,1,2,NONE,29,182
2026-05-27T23:36:14.165,867123,0.98,-0.24,-0.12,21.0,-0.1,15.0,-7.7,13.5,24.2,101.122,35.97,0,1,0,0,1,NONE,127,725
2026-05-27T23:36:14.224,867175,0.97,-0.15,-0.04,23.7,-8.9,12.6,-7.3,12.7,24.0,101.121,35.97,0,1,0,0,1,NONE,202,859
2026-05-27T23:36:14.273,867223,0.99,-0.36,-0.41,28.3,21.9,5.6,-7.8,12.8,22.2,101.125,35.97,0,1,0,0,1,NONE,165,783
2026-05-27T23:36:14.321,867271,0.88,-0.15,-0.23,-8.0,-3.0,-0.6,-7.7,12.9,23.2,101.12,35.97,0,1,0,0,1,NONE,103,503
2026-05-27T23:36:14.372,867323,1.08,-0.15,-0.41,28.1,10.6,4.3,-7.8,12.4,24.0,101.121,35.97,0,1,0,0,1,NONE,94,528
2026-05-27T23:36:14.418,867373,0.88,-0.1,-0.26,25.2,-7.9,6.8,-7.4,11.5,23.6,101.121,35.96,0,1,0,0,1,NONE,251,1060
2026-05-27T23:36:14.468,867421,0.94,-0.15,-0.24,15.4,9.8,5.9,-7.6,11.4,22.2,101.123,35.97,0,1,0,0,1,NONE,119,544
2026-05-27T23:36:14.517,867473,0.96,-0.11,-0.23,3.1,-5.8,5.3,-7.7,11.1,22.4,101.119,35.97,0,1,0,0,1,NONE,62,395
2026-05-27T23:36:14.564,867525,0.89,-0.07,-0.25,8.2,1.2,2.7,-7.3,11.0,22.2,101.121,35.97,0,1,0,0,1,NONE,93,550
2026-05-27T23:36:14.621,867571,0.95,-0.08,-0.21,15.7,0.6,0.4,-7.1,11.6,21.9,101.121,35.97,0,1,0,0,1,NONE,92,539
2026-05-27T23:36:14.665,867623,0.89,-0.1,-0.23,12.6,7.4,0.6,-7.6,10.7,21.5,101.122,35.98,0,1,0,0,1,NONE,59,323
2026-05-27T23:36:14.707,867671,0.92,-0.08,-0.2,18.0,8.7,0.9,-7.2,10.4,21.6,101.119,35.97,0,1,0,0,1,NONE,55,335
2026-05-27T23:36:14.773,867723,0.96,-0.04,-0.17,14.5,9.2,-2.6,-7.3,9.5,21.3,101.125,35.97,0,1,0,0,1,NONE,74,391
2026-05-27T23:36:14.819,867775,0.91,-0.13,-0.14,14.9,10.6,-6.1,-7.1,9.9,21.7,101.122,35.97,0,1,0,0,1,NONE,78,467
2026-05-27T23:36:14.873,867823,0.96,-0.17,-0.18,-0.9,13.6,-8.9,-7.7,10.1,21.3,101.125,35.97,0,1,0,1,2,NONE,106,729
2026-05-27T23:36:14.919,867874,1.01,-0.04,-0.2,15.6,7.6,-5.6,-7.2,10.2,20.3,101.12,35.96,0,1,0,1,2,NONE,192,1167
2026-05-27T23:36:14.968,867921,0.82,-0.24,-0.06,-9.4,-1.8,-9.1,-6.7,10.4,21.7,101.12,35.97,0,1,0,0,1,NONE,90,530
2026-05-27T23:36:15.016,867975,1.17,-0.15,-0.39,-34.6,24.2,-11.0,-6.2,11.3,22.1,101.122,35.97,0,1,0,0,1,NONE,52,252
2026-05-27T23:36:15.061,868021,0.99,-0.32,-0.26,0.0,-20.5,1.6,-7.4,11.9,23.2,101.12,35.97,0,1,0,1,2,NONE,76,344
2026-05-27T23:36:15.109,868071,0.89,-0.14,-0.3,-12.1,-3.4,4.2,-6.4,11.7,22.0,101.12,35.97,0,1,0,1,2,NONE,76,394
2026-05-27T23:36:15.158,868121,0.97,-0.41,-0.41,-8.6,6.2,-0.9,-6.7,11.8,22.0,101.122,35.97,0,1,0,0,1,NONE,116,700
