pc_timestamp_iso,ms,ax,ay,az,gx,gy,gz,mx,my,mz,press,baro_t,prox,cr,cg,cb,light,gesture,mic,p2p
2026-05-27T23:56:42.174,2095170,0.94,-0.25,-0.1,7.1,2.9,2.9,0.8,15.2,24.8,101.119,37.54,0,1,0,0,1,NONE,87,477
2026-05-27T23:56:42.222,2095208,0.93,-0.25,-0.13,4.1,5.9,3.0,0.9,15.5,24.2,101.12,37.56,0,1,0,0,1,NONE,101,582
2026-05-27T23:56:42.270,2095259,0.95,-0.23,-0.12,4.6,3.9,3.4,1.0,15.8,24.9,101.119,37.56,0,1,0,0,1,NONE,98,577
2026-05-27T23:56:42.322,2095309,0.95,-0.23,-0.12,4.3,4.6,3.7,1.1,15.9,24.6,101.12,37.57,0,1,0,0,1,NONE,137,932
2026-05-27T23:56:42.367,2095358,0.95,-0.24,-0.12,5.5,3.9,2.9,1.0,15.9,24.4,101.12,37.58,0,1,0,0,1,NONE,156,872
2026-05-27T23:56:42.418,2095409,0.94,-0.24,-0.13,2.6,5.1,3.5,0.3,15.6,25.4,101.118,37.58,0,1,0,0,1,NONE,99,598
2026-05-27T23:56:42.474,2095459,0.93,-0.24,-0.11,3.8,5.2,2.8,0.9,15.5,24.1,101.116,37.59,0,1,0,0,1,NONE,66,386
2026-05-27T23:56:42.513,2095507,0.95,-0.23,-0.14,0.7,3.8,3.3,0.8,15.7,24.6,101.119,37.59,0,1,0,0,1,NONE,64,376
2026-05-27T23:56:42.574,2095559,0.95,-0.22,-0.12,-0.4,2.3,3.5,1.0,15.8,24.2,101.122,37.59,0,1,0,0,1,NONE,55,332
2026-05-27T23:56:42.613,2095607,0.95,-0.22,-0.12,1.5,0.5,2.9,0.7,15.9,25.4,101.121,37.6,0,1,0,0,1,NONE,63,326
2026-05-27T23:56:42.674,2095660,0.95,-0.23,-0.12,1.8,1.2,2.9,0.8,15.6,24.0,101.12,37.6,0,1,0,0,1,NONE,230,1209
2026-05-27T23:56:42.722,2095709,0.94,-0.22,-0.13,1.2,0.3,2.6,0.7,15.7,25.7,101.12,37.6,0,1,0,0,1,NONE,181,1268
2026-05-27T23:56:42.770,2095757,0.95,-0.22,-0.12,4.5,-1.3,2.6,1.2,15.7,23.9,101.125,37.61,0,1,0,0,1,NONE,121,720
2026-05-27T23:56:42.820,2095809,0.95,-0.22,-0.12,5.1,-0.5,2.9,1.2,15.9,24.3,101.12,37.61,0,1,0,0,1,NONE,73,407
2026-05-27T23:56:42.869,2095861,0.95,-0.23,-0.1,4.6,-0.1,2.3,1.2,15.8,24.7,101.122,37.61,0,1,0,0,1,NONE,256,1314
2026-05-27T23:56:42.918,2095907,0.95,-0.22,-0.1,2.7,1.4,2.7,1.2,15.7,25.1,101.117,37.61,0,1,0,0,1,NONE,304,1438
2026-05-27T23:56:42.970,2095959,0.95,-0.22,-0.11,1.7,1.4,2.9,0.8,15.8,24.2,101.119,37.61,0,1,0,0,1,NONE,194,1151
2026-05-27T23:56:43.020,2096007,0.95,-0.21,-0.12,1.9,3.6,2.1,0.9,16.1,24.4,101.121,37.62,0,1,0,0,1,NONE,93,487
2026-05-27T23:56:43.059,2096059,0.95,-0.21,-0.1,2.3,2.1,2.3,1.0,16.0,24.2,101.121,37.62,0,1,0,0,1,NONE,74,426
2026-05-27T23:56:43.119,2096109,0.96,-0.21,-0.12,4.9,2.2,1.8,1.2,16.4,24.4,101.123,37.63,0,1,0,0,1,NONE,70,384
2026-05-27T23:56:43.171,2096158,0.95,-0.22,-0.11,6.1,-0.4,1.3,1.2,16.0,25.2,101.117,37.62,0,1,0,0,1,NONE,49,372
2026-05-27T23:56:43.222,2096209,0.95,-0.22,-0.11,6.7,-1.2,0.6,1.2,15.6,25.2,101.121,37.62,0,1,0,0,1,NONE,63,300
2026-05-27T23:56:43.272,2096261,0.96,-0.22,-0.09,6.3,-0.7,-0.9,1.8,15.2,23.0,101.121,37.62,0,1,0,0,1,NONE,58,265
2026-05-27T23:56:43.320,2096307,0.92,-0.24,-0.06,1.8,-0.6,-1.3,1.7,15.8,24.1,101.119,37.63,0,1,0,0,1,NONE,46,242
2026-05-27T23:56:43.373,2096359,0.97,-0.26,-0.12,-2.0,1.8,0.1,1.9,15.5,24.5,101.12,37.63,0,1,0,0,1,NONE,63,218
2026-05-27T23:56:43.419,2096407,0.97,-0.22,-0.16,-1.1,4.3,1.2,2.2,15.7,24.4,101.123,37.63,0,1,0,0,1,NONE,63,208
2026-05-27T23:56:43.468,2096459,0.96,-0.23,-0.09,0.2,2.1,2.9,2.1,16.3,24.0,101.117,37.62,0,1,0,0,1,NONE,49,289
2026-05-27T23:56:43.520,2096509,0.96,-0.2,-0.08,9.4,-1.8,1.6,1.9,15.9,24.1,101.122,37.63,0,1,0,0,1,NONE,45,185
2026-05-27T23:56:43.569,2096558,0.95,-0.22,-0.1,10.9,-2.2,0.7,2.1,15.9,25.0,101.116,37.63,0,1,1,1,3,NONE,52,218
2026-05-27T23:56:43.620,2096609,0.95,-0.22,-0.08,8.5,-0.2,-0.1,2.0,16.4,24.2,101.123,37.63,0,1,1,1,3,NONE,52,211
2026-05-27T23:56:43.674,2096661,0.94,-0.25,-0.07,6.1,-8.2,-0.9,2.7,16.1,24.8,101.122,37.63,0,1,1,1,3,NONE,46,186
2026-05-27T23:56:43.720,2096707,0.93,-0.25,-0.09,1.8,-3.1,1.0,2.9,15.5,24.6,101.123,37.63,0,1,1,1,3,NONE,49,219
2026-05-27T23:56:43.764,2096761,0.95,-0.24,-0.08,0.5,-0.4,2.1,2.8,15.9,24.6,101.12,37.63,0,1,1,1,3,NONE,54,233
2026-05-27T23:56:43.812,2096807,0.95,-0.22,-0.09,0.7,2.1,2.0,3.1,15.8,24.0,101.121,37.63,0,1,1,1,3,NONE,50,263
2026-05-27T23:56:43.873,2096860,0.94,-0.22,-0.07,1.8,1.4,2.9,3.5,15.6,23.9,101.121,37.63,0,1,0,0,1,NONE,51,214
2026-05-27T23:56:43.921,2096911,0.95,-0.23,-0.1,3.7,4.3,2.4,2.9,15.6,24.4,101.12,37.63,0,1,0,0,1,NONE,46,221
2026-05-27T23:56:43.972,2096959,0.95,-0.24,-0.1,3.7,3.8,2.1,3.3,15.7,25.2,101.119,37.63,0,1,0,1,2,NONE,47,257
2026-05-27T23:56:44.017,2097007,0.96,-0.25,-0.05,3.1,6.8,2.0,3.3,15.6,23.1,101.122,37.63,0,1,0,1,2,NONE,44,227
2026-05-27T23:56:44.068,2097059,0.95,-0.23,-0.05,3.2,5.1,1.6,3.0,15.9,24.9,101.121,37.64,0,1,1,1,3,NONE,32,158
2026-05-27T23:56:44.122,2097109,0.96,-0.24,-0.06,0.4,4.9,2.0,3.3,15.7,25.4,101.119,37.64,0,1,1,1,3,NONE,32,184
2026-05-27T23:56:44.164,2097158,0.95,-0.24,-0.09,1.4,4.1,1.4,2.9,15.3,24.9,101.119,37.64,0,1,1,1,3,NONE,37,206
2026-05-27T23:56:44.222,2097209,0.95,-0.23,-0.09,4.9,6.2,2.0,3.0,16.0,25.0,101.124,37.63,0,1,1,1,3,NONE,43,257
2026-05-27T23:56:44.274,2097261,0.94,-0.24,-0.07,0.7,3.7,3.3,3.2,15.8,24.8,101.12,37.64,0,1,1,1,3,NONE,51,276
2026-05-27T23:56:44.320,2097307,0.96,-0.24,-0.09,2.1,-0.7,2.9,2.6,15.6,23.6,101.121,37.64,0,1,1,1,3,NONE,96,553
2026-05-27T23:56:44.374,2097359,0.95,-0.22,-0.08,0.5,2.9,3.7,2.9,15.8,24.6,101.12,37.64,0,1,1,1,3,NONE,275,1706
2026-05-27T23:56:44.420,2097407,0.95,-0.23,-0.04,5.2,1.8,2.5,3.3,16.4,23.4,101.122,37.64,0,1,1,1,3,NONE,88,606
2026-05-27T23:56:44.468,2097459,0.94,-0.24,-0.08,0.3,6.6,2.1,3.1,15.9,23.2,101.119,37.64,0,1,1,1,3,NONE,315,1800
2026-05-27T23:56:44.516,2097509,0.94,-0.24,-0.05,4.8,8.9,1.8,2.8,16.3,23.8,101.118,37.64,0,1,1,1,3,NONE,308,1683
2026-05-27T23:56:44.567,2097557,0.94,-0.22,-0.1,2.0,8.7,2.6,3.0,15.5,23.6,101.122,37.64,0,1,1,1,3,NONE,100,538
2026-05-27T23:56:44.615,2097609,0.95,-0.24,-0.08,2.4,9.0,2.8,2.5,15.8,24.5,101.123,37.64,0,1,1,1,3,NONE,67,340
2026-05-27T23:56:44.660,2097661,0.94,-0.22,-0.07,4.8,4.8,3.3,2.4,15.9,24.1,101.123,37.65,0,1,0,1,2,NONE,274,1567
2026-05-27T23:56:44.711,2097707,0.94,-0.19,-0.07,5.7,6.7,4.2,2.4,15.9,24.8,101.12,37.64,0,1,0,1,2,NONE,197,1118
2026-05-27T23:56:44.774,2097759,0.96,-0.2,-0.11,6.8,6.7,3.5,1.8,15.9,24.3,101.121,37.64,0,1,0,1,2,NONE,234,1604
2026-05-27T23:56:44.821,2097807,0.95,-0.21,-0.08,7.9,4.6,3.3,2.1,15.7,23.8,101.12,37.64,0,1,0,1,2,NONE,156,804
2026-05-27T23:56:44.872,2097859,0.96,-0.23,-0.07,8.5,2.6,2.9,2.3,15.8,25.0,101.119,37.64,0,1,0,0,1,NONE,131,799
2026-05-27T23:56:44.925,2097911,0.96,-0.22,-0.07,7.4,2.9,2.3,2.3,15.9,23.9,101.121,37.64,0,1,0,0,1,NONE,65,378
2026-05-27T23:56:44.972,2097959,0.96,-0.23,-0.1,6.9,0.4,2.4,2.2,15.6,24.5,101.122,37.64,0,1,0,1,2,NONE,70,549
2026-05-27T23:56:45.023,2098010,0.95,-0.22,-0.09,7.2,1.8,2.6,1.9,15.0,24.7,101.12,37.63,0,1,0,1,2,NONE,72,325
2026-05-27T23:56:45.071,2098057,0.95,-0.22,-0.07,6.2,-2.7,2.2,2.6,15.0,24.4,101.118,37.64,0,1,0,1,2,NONE,52,251
2026-05-27T23:56:45.124,2098111,0.96,-0.22,-0.08,5.1,-0.8,2.3,1.8,15.1,24.7,101.115,37.64,0,1,0,1,2,NONE,96,802
2026-05-27T23:56:45.170,2098157,0.95,-0.21,-0.07,5.0,-3.1,2.3,2.1,15.0,27.0,101.121,37.64,0,1,0,1,2,NONE,132,793
2026-05-27T23:56:45.221,2098208,0.96,-0.21,-0.07,6.3,-3.2,1.8,2.1,15.0,27.0,101.115,37.64,0,1,0,1,2,NONE,62,372
2026-05-27T23:56:45.271,2098257,0.95,-0.24,-0.05,5.1,-4.0,1.6,3.2,15.4,23.7,101.119,37.64,0,1,1,1,3,NONE,74,420
2026-05-27T23:56:45.321,2098309,0.96,-0.24,-0.06,2.5,-2.0,1.6,2.8,15.1,24.3,101.12,37.64,0,1,1,1,3,NONE,42,217
2026-05-27T23:56:45.372,2098357,0.94,-0.22,-0.05,1.0,-2.0,2.3,3.6,15.1,23.6,101.12,37.64,0,1,0,1,2,NONE,42,226
2026-05-27T23:56:45.422,2098409,0.96,-0.22,-0.04,-1.4,-1.3,2.3,2.9,15.1,22.7,101.12,37.64,0,1,0,1,2,NONE,48,277
2026-05-27T23:56:45.472,2098461,0.97,-0.21,-0.05,-0.3,-2.1,1.2,3.0,14.7,23.1,101.119,37.64,0,1,0,0,1,NONE,47,229
2026-05-27T23:56:45.521,2098509,0.95,-0.21,-0.03,-0.1,-3.7,2.0,3.4,14.5,24.7,101.122,37.64,0,1,0,0,1,NONE,52,304
2026-05-27T23:56:45.572,2098557,0.96,-0.2,-0.04,-1.2,-6.9,1.7,3.9,15.1,22.7,101.119,37.64,0,1,0,0,1,NONE,46,219
2026-05-27T23:56:45.621,2098609,0.96,-0.22,-0.02,1.0,-4.6,2.0,3.8,14.8,22.5,101.122,37.64,0,1,0,0,1,NONE,33,186
2026-05-27T23:56:45.671,2098661,0.95,-0.19,0.0,0.4,-5.9,2.3,4.4,15.4,22.6,101.119,37.64,0,1,0,0,1,NONE,24,145
2026-05-27T23:56:45.721,2098707,0.93,-0.2,0.01,0.4,-11.0,2.1,4.5,15.2,22.9,101.123,37.64,0,1,0,0,1,NONE,28,130
2026-05-27T23:56:45.771,2098759,0.97,-0.22,0.01,2.7,-3.2,2.4,4.6,15.3,21.2,101.117,37.63,0,1,0,0,1,NONE,24,91
2026-05-27T23:56:45.821,2098807,0.98,-0.2,0.05,2.3,-9.7,0.7,4.7,15.5,22.1,101.122,37.64,0,1,0,0,1,NONE,31,126
2026-05-27T23:56:45.874,2098859,0.93,-0.22,0.05,4.1,-3.4,1.7,4.7,15.6,21.4,101.119,37.64,0,1,0,0,1,NONE,21,94
2026-05-27T23:56:45.923,2098911,0.94,-0.19,0.06,4.3,-7.8,1.8,4.9,15.6,21.4,101.117,37.65,0,1,0,0,1,NONE,35,114
2026-05-27T23:56:45.971,2098959,0.97,-0.2,0.03,3.8,-1.6,1.2,5.3,15.5,20.7,101.121,37.64,0,1,0,0,1,NONE,28,114
2026-05-27T23:56:46.022,2099007,0.97,-0.22,0.13,4.7,-4.6,-0.4,5.5,15.1,21.2,101.121,37.64,0,1,0,0,1,NONE,29,118
2026-05-27T23:56:46.072,2099059,0.94,-0.19,0.11,5.8,-5.7,-1.5,5.7,15.7,20.1,101.118,37.64,0,1,0,0,1,NONE,25,100
2026-05-27T23:56:46.121,2099107,0.9,-0.2,0.04,9.3,-4.9,-3.7,5.9,14.6,20.6,101.118,37.65,0,1,0,0,1,NONE,43,161
2026-05-27T23:56:46.173,2099159,0.88,-0.26,0.11,-1.1,-16.6,-3.2,6.5,15.3,19.2,101.118,37.64,0,1,0,1,2,NONE,35,107
2026-05-27T23:56:46.224,2099209,0.95,-0.24,0.23,4.7,-7.1,2.0,6.9,15.8,20.1,101.117,37.64,0,1,0,1,2,NONE,36,166
2026-05-27T23:56:46.273,2099257,1.0,-0.27,0.06,1.7,17.9,-0.2,6.7,15.6,19.5,101.118,37.64,0,1,0,0,1,NONE,29,165
2026-05-27T23:56:46.323,2099309,0.96,-0.25,0.03,2.6,20.5,-0.1,6.1,15.3,20.9,101.121,37.63,0,1,0,0,1,NONE,42,190
2026-05-27T23:56:46.376,2099361,0.91,-0.24,0.09,1.1,24.5,1.3,6.0,16.1,20.7,101.12,37.64,0,1,0,1,2,NONE,42,270
2026-05-27T23:56:46.421,2099407,0.94,-0.22,0.08,0.8,22.4,0.1,5.9,15.2,22.7,101.118,37.63,0,1,0,1,2,NONE,55,384
2026-05-27T23:56:46.473,2099459,0.97,-0.26,0.1,6.4,11.0,-1.7,5.7,15.4,21.7,101.121,37.64,0,1,0,0,1,NONE,107,629
2026-05-27T23:56:46.522,2099507,0.96,-0.29,0.09,4.2,2.4,-1.5,5.6,15.8,22.0,101.119,37.64,0,1,0,0,1,NONE,52,324
2026-05-27T23:56:46.573,2099559,0.95,-0.23,0.09,4.4,-1.0,-1.7,5.2,15.6,22.8,101.12,37.63,0,1,0,0,1,NONE,42,211
2026-05-27T23:56:46.624,2099611,0.96,-0.26,0.06,3.5,-1.2,0.8,5.7,15.7,21.4,101.122,37.64,0,1,0,0,1,NONE,24,145
2026-05-27T23:56:46.673,2099659,0.94,-0.28,0.09,2.7,-11.4,1.7,5.6,16.3,22.7,101.114,37.64,0,1,0,0,1,NONE,32,176
2026-05-27T23:56:46.721,2099710,0.96,-0.22,-0.01,8.1,-2.1,2.8,5.8,16.0,22.5,101.118,37.64,0,1,0,0,1,NONE,32,177
2026-05-27T23:56:46.773,2099757,0.96,-0.27,0.08,1.0,-11.7,2.8,5.9,15.5,21.2,101.123,37.65,0,1,0,0,1,NONE,31,194
2026-05-27T23:56:46.821,2099811,0.86,-0.23,-0.02,4.9,-1.8,4.0,6.8,16.3,20.4,101.119,37.64,0,1,0,0,1,NONE,25,132
2026-05-27T23:56:46.871,2099857,0.95,-0.29,0.07,-0.1,-4.5,3.7,6.8,15.5,21.1,101.12,37.63,0,1,0,1,2,NONE,27,164
2026-05-27T23:56:46.922,2099907,1.04,-0.23,0.15,-10.6,-4.5,7.9,6.4,15.7,20.5,101.121,37.64,0,1,0,1,2,NONE,38,155
2026-05-27T23:56:46.971,2099958,0.99,-0.18,0.1,12.5,-3.8,5.5,6.8,15.7,19.8,101.122,37.63,0,1,0,0,1,NONE,43,164
2026-05-27T23:56:47.022,2100009,0.92,-0.2,0.06,6.1,1.5,6.0,6.7,16.2,20.8,101.119,37.63,0,1,0,0,1,NONE,94,472
2026-05-27T23:56:47.071,2100057,0.95,-0.22,0.07,8.3,2.0,3.3,6.9,16.3,21.0,101.121,37.64,0,1,0,1,2,NONE,103,542
2026-05-27T23:56:47.121,2100109,0.95,-0.25,0.08,9.2,0.1,3.7,7.1,15.7,19.8,101.121,37.64,0,1,0,1,2,NONE,93,524
2026-05-27T23:56:47.171,2100159,0.95,-0.21,0.13,2.5,-4.0,3.8,7.2,15.8,19.1,101.121,37.64,0,1,0,0,1,NONE,137,751
2026-05-27T23:56:47.222,2100207,0.96,-0.24,0.09,8.3,-1.2,2.1,7.2,15.8,19.1,101.12,37.63,0,1,0,0,1,NONE,225,1031
2026-05-27T23:56:47.271,2100259,0.94,-0.22,0.08,2.2,-2.8,3.4,7.0,15.3,19.0,101.122,37.64,0,1,0,0,1,NONE,259,1139
2026-05-27T23:56:47.322,2100311,0.94,-0.22,0.06,7.8,-3.2,1.9,7.4,15.3,19.6,101.12,37.63,0,1,0,0,1,NONE,64,413
2026-05-27T23:56:47.371,2100359,0.89,-0.23,0.07,2.0,-2.4,2.2,7.5,15.0,19.9,101.119,37.63,0,1,0,0,1,NONE,30,156
2026-05-27T23:56:47.421,2100407,0.89,-0.18,0.02,6.1,1.5,2.0,7.8,15.4,18.8,101.119,37.63,0,1,0,0,1,NONE,46,258
2026-05-27T23:56:47.471,2100459,0.91,-0.23,0.08,-2.7,-3.3,3.5,7.7,15.2,18.8,101.119,37.63,0,1,0,0,1,NONE,29,149
2026-05-27T23:56:47.523,2100509,0.88,-0.18,0.01,-1.5,1.0,4.8,7.6,15.4,18.6,101.122,37.63,0,1,0,0,1,NONE,33,171
2026-05-27T23:56:47.571,2100558,1.0,-0.2,0.1,-0.1,-6.0,4.8,7.6,14.8,19.2,101.121,37.63,0,1,0,0,1,NONE,28,120
2026-05-27T23:56:47.623,2100609,0.85,-0.24,0.08,-2.8,-4.2,6.1,7.5,14.8,18.5,101.123,37.64,0,1,0,0,1,NONE,38,202
2026-05-27T23:56:47.671,2100661,0.83,-0.1,-0.0,4.3,10.6,8.2,7.7,15.1,17.4,101.121,37.64,0,1,0,0,1,NONE,40,210
2026-05-27T23:56:47.720,2100707,0.99,-0.25,0.07,1.7,-2.2,3.8,7.3,14.9,18.4,101.12,37.63,0,1,0,0,1,NONE,33,187
2026-05-27T23:56:47.772,2100759,0.84,-0.02,-0.03,-1.7,-6.5,8.1,7.4,14.8,17.6,101.121,37.63,0,1,0,0,1,NONE,42,216
2026-05-27T23:56:47.821,2100807,0.82,-0.27,0.13,13.8,-10.7,-1.2,7.8,15.0,18.4,101.119,37.63,0,1,0,0,1,NONE,32,150
2026-05-27T23:56:47.872,2100859,0.87,-0.07,-0.06,-2.0,-19.0,4.8,7.7,15.0,17.3,101.12,37.64,0,1,0,0,1,NONE,56,264
2026-05-27T23:56:47.922,2100909,0.47,-0.21,-0.07,-6.2,-11.4,7.6,8.0,14.8,16.8,101.12,37.63,0,1,0,0,1,NONE,59,222
2026-05-27T23:56:47.972,2100957,0.3,-0.04,-0.0,6.8,1.5,6.2,7.6,14.8,18.6,101.121,37.63,0,1,0,0,1,NONE,53,225
2026-05-27T23:56:48.021,2101009,0.35,0.04,-0.25,-12.2,-18.2,4.7,6.9,14.5,17.3,101.122,37.64,0,1,0,0,1,NONE,83,315
2026-05-27T23:56:48.071,2101061,0.19,-0.11,0.23,4.9,-32.8,7.5,7.1,15.1,16.6,101.122,37.64,0,1,0,0,1,NONE,70,330
2026-05-27T23:56:48.121,2101107,0.68,-0.06,0.13,6.7,-56.9,-9.2,7.1,14.6,16.7,101.125,37.63,0,1,0,0,1,NONE,65,333
2026-05-27T23:56:48.170,2101159,0.84,-0.23,0.38,24.1,-53.8,2.4,7.3,15.1,15.4,101.122,37.63,0,1,0,0,1,NONE,99,394
2026-05-27T23:56:48.222,2101207,1.21,-0.01,0.47,-1.9,-99.4,-17.5,7.8,15.3,13.4,101.124,37.63,0,1,0,0,1,NONE,62,210
2026-05-27T23:56:48.271,2101259,0.68,0.11,-0.37,8.2,-159.1,-43.4,9.5,14.2,10.5,101.119,37.63,0,1,0,1,2,NONE,91,299
2026-05-27T23:56:48.323,2101310,-0.48,-0.28,0.65,29.2,-117.8,-50.4,10.4,15.1,6.6,101.121,37.63,0,1,0,1,2,NONE,679,2462
2026-05-27T23:56:48.373,2101359,2.94,-1.74,4.0,-84.4,-337.0,-33.6,10.4,16.5,3.2,101.138,37.63,0,1,1,1,3,NONE,1189,1790
2026-05-27T23:56:48.422,2101407,-1.21,1.06,0.99,89.7,-85.1,-15.4,11.1,17.5,-3.5,101.135,37.63,0,1,1,1,3,NONE,1035,2268
2026-05-27T23:56:48.471,2101459,-0.01,-0.7,0.89,-20.4,4.0,-26.9,10.7,19.0,-8.1,101.134,37.63,0,1,1,1,3,NONE,191,663
2026-05-27T23:56:48.522,2101509,-0.0,-0.22,0.48,-7.8,7.9,-22.5,9.9,19.7,-7.9,101.129,37.63,0,1,1,1,3,NONE,91,259
2026-05-27T23:56:48.570,2101557,-0.21,0.11,0.44,-15.1,15.0,14.2,10.4,20.5,-9.7,101.129,37.63,0,1,1,1,3,NONE,156,484
2026-05-27T23:56:48.622,2101609,-0.1,-0.16,0.56,-10.9,-7.0,-22.4,11.1,20.0,-6.8,101.129,37.63,0,1,1,1,3,NONE,142,724
2026-05-27T23:56:48.675,2101661,-0.08,-0.07,1.05,0.1,-1.1,3.9,10.2,21.5,-8.5,101.133,37.63,0,1,1,1,3,NONE,113,613
2026-05-27T23:56:48.720,2101709,-0.11,-0.24,1.04,-8.3,23.6,1.7,10.2,21.5,-8.5,101.132,37.63,0,1,1,1,3,NONE,218,485
2026-05-27T23:56:48.774,2101761,0.11,-0.26,1.03,-14.5,6.3,4.0,10.3,21.1,-6.0,101.129,37.63,0,1,1,1,3,NONE,206,264
2026-05-27T23:56:48.817,2101809,0.25,-0.23,0.88,-4.9,-2.1,12.5,10.3,20.6,-8.4,101.126,37.63,0,1,1,1,3,NONE,220,661
2026-05-27T23:56:48.869,2101857,0.15,-0.17,0.96,2.0,-17.9,-2.1,10.3,21.0,-7.3,101.129,37.63,0,1,1,1,3,NONE,204,269
2026-05-27T23:56:48.922,2101909,0.22,-0.12,0.86,44.6,8.6,12.0,10.3,20.9,-7.0,101.127,37.64,0,1,1,1,3,NONE,150,365
2026-05-27T23:56:48.971,2101961,0.19,-0.15,0.68,6.4,8.4,23.7,10.6,19.8,-8.0,101.129,37.63,0,1,1,1,3,NONE,118,197
2026-05-27T23:56:49.022,2102007,-0.03,-0.18,0.96,10.1,18.4,8.8,10.5,19.8,-6.4,101.127,37.63,0,1,1,1,3,NONE,142,495
2026-05-27T23:56:49.072,2102059,0.24,-0.23,0.96,21.6,31.1,15.4,10.8,19.4,-6.7,101.127,37.63,0,1,1,1,3,NONE,116,248
2026-05-27T23:56:49.120,2102107,0.09,-0.15,0.93,15.4,54.7,19.2,11.2,18.8,-4.8,101.128,37.63,0,1,1,1,3,NONE,135,206
2026-05-27T23:56:49.172,2102159,0.12,-0.44,1.02,18.1,58.8,24.1,11.3,18.0,-5.0,101.128,37.63,0,1,1,1,3,NONE,106,295
2026-05-27T23:56:49.220,2102211,0.57,-0.29,0.99,-19.3,71.2,8.5,11.5,17.8,-1.8,101.126,37.63,0,1,1,1,3,NONE,69,247
2026-05-27T23:56:49.273,2102259,0.43,-0.28,1.05,-6.5,79.2,12.9,11.3,17.2,-1.4,101.13,37.63,0,1,1,1,3,NONE,157,175
2026-05-27T23:56:49.321,2102307,0.61,-0.21,0.74,-13.4,22.3,-1.3,11.0,17.2,1.5,101.126,37.63,0,1,1,1,3,NONE,111,189
2026-05-27T23:56:49.371,2102359,0.2,0.07,0.73,-34.1,3.2,6.5,10.9,17.9,1.1,101.128,37.63,0,1,1,1,3,NONE,78,251
2026-05-27T23:56:49.420,2102409,0.79,-0.24,0.52,-12.9,-22.2,4.9,11.0,18.0,2.7,101.128,37.63,0,1,1,1,3,NONE,51,315
2026-05-27T23:56:49.471,2102457,0.59,-0.19,0.81,-20.1,-30.0,15.1,10.8,17.2,1.0,101.13,37.63,0,1,1,1,3,NONE,59,373
2026-05-27T23:56:49.522,2102509,0.46,-0.05,0.65,-6.4,-38.1,7.2,11.3,16.7,-0.2,101.131,37.63,0,1,1,1,3,NONE,64,403
2026-05-27T23:56:49.574,2102561,0.5,-0.15,1.03,5.0,-37.0,-4.2,11.5,16.8,-1.6,101.127,37.63,0,1,1,1,3,NONE,52,250
2026-05-27T23:56:49.621,2102607,0.45,-0.07,0.8,2.6,-37.4,0.5,11.6,16.9,-0.9,101.132,37.63,0,1,1,1,3,NONE,51,231
2026-05-27T23:56:49.671,2102659,0.43,-0.1,1.04,9.4,-49.3,-2.1,10.9,16.8,-2.0,101.13,37.63,0,1,1,1,3,NONE,43,167
2026-05-27T23:56:49.721,2102707,0.16,-0.12,0.89,0.6,-37.0,3.9,11.2,16.9,-2.8,101.127,37.62,0,1,1,1,3,NONE,72,308
2026-05-27T23:56:49.773,2102759,0.21,-0.03,0.96,8.8,-19.5,3.3,10.5,17.0,-5.0,101.126,37.62,0,1,1,1,3,NONE,72,245
2026-05-27T23:56:49.820,2102809,-0.01,-0.02,0.94,2.9,-14.2,-8.1,10.3,17.2,-4.9,101.128,37.62,0,1,1,1,3,NONE,61,305
2026-05-27T23:56:49.870,2102858,0.32,-0.33,0.99,27.7,25.6,2.3,10.4,17.3,-6.1,101.127,37.62,0,1,1,1,3,NONE,50,230
2026-05-27T23:56:49.920,2102909,0.18,-0.11,0.83,-0.2,-4.1,-0.6,10.3,18.1,-4.8,101.129,37.62,0,1,1,1,3,NONE,48,224
2026-05-27T23:56:49.974,2102961,0.2,-0.18,0.93,12.0,4.1,-3.7,10.7,18.1,-5.1,101.132,37.62,0,1,1,1,3,NONE,48,256
2026-05-27T23:56:50.019,2103007,0.24,-0.19,0.96,8.7,6.8,-3.2,10.7,18.7,-5.7,101.132,37.62,0,1,1,1,3,NONE,68,394
2026-05-27T23:56:50.071,2103059,0.22,-0.17,0.94,4.1,14.4,0.7,10.9,18.9,-4.3,101.127,37.62,0,1,1,1,3,NONE,91,488
2026-05-27T23:56:50.120,2103107,0.23,-0.17,0.9,4.9,3.7,2.2,11.3,18.9,-4.8,101.126,37.62,0,1,1,1,3,NONE,133,682
2026-05-27T23:56:50.173,2103159,0.23,-0.17,0.99,1.0,5.4,3.2,11.3,18.0,-3.1,101.127,37.62,0,1,1,1,3,NONE,90,529
2026-05-27T23:56:50.222,2103208,0.22,-0.15,0.9,6.3,3.5,3.8,11.2,18.4,-4.3,101.127,37.62,0,1,1,1,3,NONE,68,427
2026-05-27T23:56:50.271,2103257,0.21,-0.16,0.98,1.8,5.3,1.5,11.4,18.7,-4.3,101.127,37.61,0,1,1,1,3,NONE,106,535
2026-05-27T23:56:50.323,2103309,0.24,-0.16,0.87,3.6,4.5,2.6,11.5,18.2,-4.2,101.126,37.61,0,1,1,1,3,NONE,70,487
2026-05-27T23:56:50.372,2103358,0.24,-0.16,0.95,2.0,3.5,1.5,11.3,18.7,-4.3,101.126,37.61,0,1,1,1,3,NONE,79,417
2026-05-27T23:56:50.422,2103409,0.23,-0.15,0.87,3.2,3.8,2.4,11.4,18.3,-4.5,101.126,37.61,0,1,1,1,3,NONE,76,408
2026-05-27T23:56:50.474,2103460,0.22,-0.15,0.97,2.2,3.4,0.9,11.1,18.7,-4.1,101.127,37.61,0,1,1,1,3,NONE,142,784
2026-05-27T23:56:50.520,2103509,0.23,-0.17,0.91,4.0,9.9,2.6,11.0,18.5,-4.5,101.128,37.62,0,1,1,1,3,NONE,86,448
2026-05-27T23:56:50.563,2103557,0.3,-0.18,0.96,5.4,13.4,3.8,11.0,18.2,-4.2,101.131,37.62,0,1,1,1,3,NONE,97,463
2026-05-27T23:56:50.622,2103609,0.24,-0.14,0.91,-3.1,7.3,2.4,11.4,18.4,-4.9,101.13,37.61,0,1,1,1,3,NONE,63,306
2026-05-27T23:56:50.674,2103661,0.24,-0.14,0.99,3.6,16.5,4.6,11.0,18.2,-3.2,101.129,37.61,0,1,1,1,3,NONE,76,430
2026-05-27T23:56:50.720,2103707,0.29,-0.14,0.83,7.2,5.1,2.0,11.0,17.8,-4.1,101.129,37.61,0,1,1,1,3,NONE,47,319
2026-05-27T23:56:50.773,2103759,0.27,-0.16,0.96,4.0,6.7,0.1,11.4,18.0,-3.2,101.127,37.61,0,1,1,1,3,NONE,36,187
2026-05-27T23:56:50.821,2103807,0.27,-0.17,0.85,8.9,7.0,-2.6,11.2,17.8,-4.4,101.131,37.61,0,1,1,1,3,NONE,67,347
2026-05-27T23:56:50.872,2103859,0.27,-0.19,0.93,4.0,2.7,-0.7,10.6,18.2,-2.1,101.128,37.61,0,1,1,1,3,NONE,40,228
2026-05-27T23:56:50.920,2103911,0.24,-0.18,0.92,7.0,6.9,0.6,11.3,18.1,-3.0,101.131,37.61,0,1,1,1,3,NONE,42,230
2026-05-27T23:56:50.972,2103959,0.31,-0.19,0.89,1.5,3.4,1.6,10.9,18.8,-3.7,101.125,37.6,0,1,1,1,3,NONE,46,205
2026-05-27T23:56:51.021,2104007,0.27,-0.16,0.86,4.5,-1.8,1.5,11.0,18.0,-3.5,101.128,37.61,0,1,1,1,3,NONE,39,124
2026-05-27T23:56:51.073,2104059,0.28,-0.22,0.73,5.0,-4.0,3.1,11.4,18.0,-3.7,101.13,37.61,0,1,1,1,3,NONE,51,176
2026-05-27T23:56:51.120,2104109,0.2,-0.14,0.98,-4.5,-6.8,2.6,11.4,18.4,-3.6,101.123,37.61,0,1,1,1,3,NONE,54,181
2026-05-27T23:56:51.171,2104157,0.25,-0.14,0.99,8.9,2.1,2.0,11.5,18.4,-3.2,101.129,37.6,0,1,1,1,3,NONE,66,266
2026-05-27T23:56:51.220,2104209,0.28,-0.14,0.91,-0.6,-3.2,2.4,11.3,17.8,-4.4,101.125,37.61,0,1,1,1,3,NONE,63,325
2026-05-27T23:56:51.273,2104261,0.28,-0.13,0.92,16.9,-1.2,0.7,11.1,18.5,-4.7,101.127,37.61,0,1,1,1,3,NONE,89,455
2026-05-27T23:56:51.321,2104307,0.19,-0.29,0.61,31.9,8.9,-5.1,10.9,18.3,-4.3,101.129,37.61,0,1,1,1,3,NONE,54,277
2026-05-27T23:56:51.373,2104359,0.17,-0.11,1.19,-14.3,0.8,-1.2,10.8,19.1,-5.6,101.128,37.6,0,1,1,1,3,NONE,108,669
2026-05-27T23:56:51.421,2104407,0.19,-0.09,0.94,11.7,15.5,-3.8,10.8,19.7,-4.5,101.128,37.6,0,1,1,1,3,NONE,167,716
2026-05-27T23:56:51.473,2104459,0.27,-0.22,1.03,16.2,11.4,-7.2,10.9,18.9,-4.0,101.133,37.61,0,1,1,1,3,NONE,181,798
2026-05-27T23:56:51.520,2104509,0.41,-0.18,0.74,2.3,-17.0,-12.5,11.5,19.9,-4.8,101.131,37.6,0,1,1,1,3,NONE,141,708
2026-05-27T23:56:51.570,2104557,0.24,-0.4,1.02,14.3,5.1,-8.1,10.6,20.5,-4.3,101.129,37.6,0,1,1,1,3,NONE,204,1485
2026-05-27T23:56:51.620,2104609,0.17,-0.15,0.69,-4.5,-2.0,-23.7,11.3,20.8,-3.6,101.127,37.6,0,1,1,1,3,NONE,129,588
2026-05-27T23:56:51.674,2104661,0.16,0.12,0.41,33.0,50.6,77.9,11.2,21.0,-4.7,101.13,37.6,0,1,1,1,3,NONE,215,1189
2026-05-27T23:56:51.720,2104707,0.3,-0.2,1.07,9.5,40.3,-4.4,11.1,20.3,-4.9,101.128,37.6,0,1,1,1,3,NONE,102,438
2026-05-27T23:56:51.773,2104759,0.55,-0.36,0.81,14.2,58.8,53.0,11.9,20.9,-2.9,101.134,37.6,0,1,1,1,3,NONE,64,461
2026-05-27T23:56:51.820,2104807,0.41,-0.3,1.07,25.3,73.3,15.1,11.9,19.9,-2.5,101.128,37.6,0,1,1,1,3,NONE,95,503
2026-05-27T23:56:51.873,2104859,0.36,-0.07,0.8,43.3,94.0,2.8,11.9,19.8,0.0,101.127,37.6,0,1,1,1,3,NONE,75,289
2026-05-27T23:56:51.924,2104911,0.39,-0.34,1.0,34.2,96.8,34.4,11.4,19.8,1.0,101.127,37.6,0,1,1,1,3,NONE,68,332
2026-05-27T23:56:51.972,2104959,0.51,-0.22,0.73,37.2,95.7,22.0,11.2,18.8,3.6,101.132,37.6,0,1,1,1,3,NONE,66,402
2026-05-27T23:56:52.020,2105007,0.54,-0.45,0.85,15.3,82.4,8.6,10.9,18.3,5.9,101.128,37.6,0,1,1,1,3,NONE,132,597
2026-05-27T23:56:52.070,2105059,0.76,-0.31,0.4,42.8,101.0,14.0,9.6,18.1,7.9,101.129,37.6,0,1,0,1,2,NONE,109,508
2026-05-27T23:56:52.122,2105109,0.71,-0.42,0.52,22.2,110.0,-2.2,8.3,16.7,9.2,101.128,37.6,0,1,0,1,2,NONE,71,340
2026-05-27T23:56:52.171,2105158,0.77,-0.37,0.21,32.9,147.3,-0.4,5.4,17.1,15.5,101.128,37.6,0,1,0,0,1,NONE,84,386
2026-05-27T23:56:52.222,2105209,0.83,-0.33,0.15,17.4,148.3,4.6,2.7,17.1,18.5,101.13,37.61,0,1,0,0,1,NONE,82,393
2026-05-27T23:56:52.270,2105261,0.85,-0.37,0.04,23.9,140.7,1.0,-0.7,16.5,20.0,101.131,37.6,0,0,0,0,0,NONE,78,376
2026-05-27T23:56:52.319,2105307,0.89,-0.16,0.06,8.6,136.1,-5.5,-3.3,16.5,23.5,101.129,37.6,0,0,0,0,0,NONE,91,391
2026-05-27T23:56:52.370,2105359,0.94,-0.37,-0.05,32.2,85.6,-29.2,-5.7,16.3,22.2,101.13,37.6,0,0,0,0,0,NONE,73,321
2026-05-27T23:56:52.421,2105407,0.92,-0.26,-0.33,59.1,97.0,-14.8,-7.8,15.5,24.1,101.128,37.6,0,0,0,0,0,NONE,68,352
2026-05-27T23:56:52.472,2105460,0.89,-0.56,-0.15,55.0,106.8,2.7,-10.4,14.2,25.1,101.13,37.6,0,0,0,0,0,NONE,122,296
2026-05-27T23:56:52.521,2105509,1.06,-0.53,-0.63,49.0,85.6,0.5,-13.5,13.6,24.2,101.13,37.6,0,0,0,0,0,NONE,175,362
2026-05-27T23:56:52.570,2105558,0.67,-0.56,-0.08,1.2,26.0,36.3,-14.2,13.2,24.1,101.131,37.6,0,0,0,0,0,NONE,99,507
2026-05-27T23:56:52.622,2105609,0.91,-0.72,-0.63,1.5,14.2,45.9,-15.5,12.3,25.1,101.128,37.6,0,0,0,0,0,NONE,121,361
2026-05-27T23:56:52.674,2105661,0.91,-0.36,-0.54,13.6,-2.1,33.9,-16.0,12.0,25.1,101.129,37.6,0,0,0,0,0,NONE,92,375
2026-05-27T23:56:52.721,2105707,0.85,-0.23,-0.46,14.6,-17.0,47.2,-16.7,11.9,24.9,101.13,37.6,0,0,0,0,0,NONE,54,272
2026-05-27T23:56:52.770,2105759,0.89,-0.42,-0.6,4.2,-1.7,33.9,-17.5,12.2,25.3,101.128,37.59,0,0,0,0,0,NONE,125,241
2026-05-27T23:56:52.821,2105807,1.07,-0.38,-0.97,37.5,72.8,46.8,-19.1,12.1,25.0,101.128,37.6,0,0,0,0,0,NONE,133,277
2026-05-27T23:56:52.873,2105859,1.41,-0.29,-1.17,-4.4,38.0,46.6,-21.3,11.8,25.2,101.13,37.6,0,0,0,0,0,NONE,111,237
2026-05-27T23:56:52.925,2105911,1.06,-0.1,-0.81,-31.4,35.5,12.5,-21.8,12.8,27.5,101.128,37.6,0,0,0,0,0,NONE,88,285
2026-05-27T23:56:52.971,2105959,0.8,-0.18,-0.7,15.1,25.8,-2.3,-21.7,14.4,26.9,101.126,37.59,0,0,0,0,0,NONE,71,220
2026-05-27T23:56:53.020,2106007,0.91,-0.1,-0.87,2.1,17.9,4.1,-21.8,14.3,27.3,101.123,37.59,0,0,0,0,0,NONE,117,298
2026-05-27T23:56:53.070,2106059,0.52,-0.23,-0.41,-22.1,11.2,-15.6,-21.1,14.2,27.3,101.127,37.6,0,0,0,0,0,NONE,71,369
2026-05-27T23:56:53.120,2106109,0.65,-0.08,-0.67,-26.4,36.6,-8.7,-21.2,14.1,27.8,101.125,37.59,0,0,0,0,0,NONE,347,1747
2026-05-27T23:56:53.170,2106158,0.45,-0.16,-0.68,16.4,31.0,-16.5,-21.0,14.5,28.0,101.125,37.59,0,0,0,0,0,NONE,58,306
2026-05-27T23:56:53.220,2106209,0.68,-0.16,-0.34,18.1,-9.8,-12.2,-19.3,14.2,28.5,101.126,37.6,0,0,0,0,0,NONE,280,2143
2026-05-27T23:56:53.274,2106261,0.57,0.04,-0.54,-23.3,-19.5,10.9,-18.5,15.1,28.7,101.127,37.6,0,0,0,0,0,NONE,146,658
2026-05-27T23:56:53.319,2106307,0.29,0.19,-0.46,66.7,25.3,-15.5,-18.2,13.8,28.8,101.123,37.59,0,0,0,0,0,NONE,91,426
2026-05-27T23:56:53.371,2106359,0.73,-0.22,-0.65,-3.2,-58.5,22.4,-16.9,13.5,27.5,101.124,37.59,0,0,0,0,0,NONE,53,334
2026-05-27T23:56:53.421,2106407,0.55,-0.16,-0.59,-5.2,-12.0,11.5,-15.6,13.1,28.2,101.124,37.59,0,0,0,0,0,NONE,40,195
2026-05-27T23:56:53.473,2106459,0.89,-0.24,-0.69,-32.3,-27.1,22.8,-14.8,13.3,28.8,101.123,37.59,0,0,0,0,0,NONE,77,370
2026-05-27T23:56:53.521,2106509,0.62,-0.18,-0.45,-12.0,-28.4,8.4,-13.7,14.1,28.8,101.121,37.59,0,0,0,0,0,NONE,91,459
2026-05-27T23:56:53.570,2106557,0.74,-0.07,-0.48,9.5,-45.0,11.2,-12.5,14.0,29.7,101.122,37.59,0,0,0,0,0,NONE,76,445
2026-05-27T23:56:53.622,2106609,0.64,-0.1,-0.26,6.8,-40.5,-3.7,-10.5,14.0,29.2,101.118,37.58,0,0,0,0,0,NONE,50,183
2026-05-27T23:56:53.669,2106661,0.43,-0.09,-0.38,52.7,-11.7,-15.3,-9.7,13.8,28.5,101.122,37.59,0,0,0,0,0,NONE,56,282
2026-05-27T23:56:53.720,2106707,0.87,-0.41,-0.95,-5.4,11.8,1.0,-8.8,12.5,28.0,101.117,37.58,0,0,0,0,0,NONE,43,224
2026-05-27T23:56:53.771,2106759,0.76,0.05,-0.45,-37.4,-36.9,2.2,-8.3,14.4,28.4,101.12,37.58,0,0,0,0,0,NONE,45,214
2026-05-27T23:56:53.820,2106807,0.6,-0.03,-0.13,45.7,-17.2,-21.1,-7.6,14.0,27.9,101.123,37.59,0,0,0,0,0,NONE,51,252
2026-05-27T23:56:53.872,2106859,1.19,-0.13,-0.48,43.2,-9.5,-17.8,-6.6,12.3,27.9,101.121,37.59,0,0,0,0,0,NONE,57,311
2026-05-27T23:56:53.924,2106911,0.82,-0.29,-0.36,-61.5,-60.0,0.1,-5.1,13.0,26.6,101.119,37.58,0,0,0,0,0,NONE,31,155
2026-05-27T23:56:53.971,2106959,0.79,0.0,-0.2,-1.1,-20.1,-10.3,-3.4,14.5,27.4,101.119,37.58,0,0,0,0,0,NONE,60,124
2026-05-27T23:56:54.020,2107007,1.04,-0.15,-0.5,-28.0,-13.5,-8.9,-2.9,14.3,27.6,101.119,37.59,0,0,0,0,0,NONE,25,135
2026-05-27T23:56:54.071,2107059,0.77,-0.27,-0.33,3.0,-22.2,-9.0,-2.1,15.9,26.4,101.118,37.58,0,0,0,0,0,NONE,29,121
2026-05-27T23:56:54.122,2107109,0.78,-0.53,-0.2,-44.3,-23.8,-5.7,-1.0,15.9,28.5,101.118,37.59,0,0,0,0,0,NONE,44,212
2026-05-27T23:56:54.171,2107157,0.86,-0.05,-0.3,-28.4,19.5,13.2,-0.5,17.0,27.3,101.117,37.58,0,0,0,0,0,NONE,47,183
2026-05-27T23:56:54.222,2107209,0.89,-0.31,-0.24,-9.1,-19.6,5.7,-0.5,17.8,27.2,101.117,37.58,0,0,0,0,0,NONE,50,223
2026-05-27T23:56:54.274,2107261,0.89,-0.15,-0.19,2.1,-0.2,4.9,-0.3,18.2,29.0,101.117,37.58,0,0,0,0,0,NONE,47,243
2026-05-27T23:56:54.320,2107307,0.88,-0.27,-0.19,16.4,9.2,-3.0,-0.1,18.4,27.7,101.118,37.58,0,0,0,0,0,NONE,41,232
2026-05-27T23:56:54.372,2107359,0.87,-0.46,-0.28,-6.5,16.1,3.8,-0.2,18.1,28.0,101.12,37.58,0,0,0,0,0,NONE,40,258
2026-05-27T23:56:54.420,2107407,0.86,-0.3,-0.15,-14.5,14.5,1.3,-0.2,18.6,28.5,101.115,37.58,0,0,0,0,0,NONE,46,256
2026-05-27T23:56:54.470,2107459,0.97,-0.29,-0.15,-12.1,21.0,1.6,-0.4,19.3,27.7,101.118,37.58,0,0,0,0,0,NONE,28,184
2026-05-27T23:56:54.520,2107509,1.03,-0.3,-0.19,-13.9,11.8,1.0,-1.8,19.8,28.4,101.12,37.58,0,0,0,0,0,NONE,30,166
2026-05-27T23:56:54.569,2107557,1.02,-0.24,-0.16,2.6,-4.0,-5.8,-1.4,20.0,30.1,101.119,37.58,0,0,0,0,0,NONE,42,238
2026-05-27T23:56:54.620,2107609,0.95,-0.15,-0.11,33.2,-31.9,-11.4,-1.1,19.7,30.3,101.121,37.59,0,0,0,0,0,NONE,24,157
2026-05-27T23:56:54.669,2107661,0.76,-0.49,-0.09,36.1,-19.6,-11.4,0.3,19.8,27.2,101.119,37.58,0,0,0,0,0,NONE,35,190
2026-05-27T23:56:54.719,2107707,0.96,-0.5,-0.37,8.4,-2.7,-1.7,1.3,18.9,28.4,101.122,37.58,0,0,0,0,0,NONE,55,236
2026-05-27T23:56:54.769,2107759,0.87,-0.31,-0.18,-6.5,-9.4,6.0,1.3,18.8,27.7,101.121,37.58,0,0,0,0,0,NONE,48,288
2026-05-27T23:56:54.820,2107807,0.83,-0.13,-0.13,20.0,-13.0,7.2,1.6,18.5,27.4,101.119,37.58,0,0,0,0,0,NONE,34,212
2026-05-27T23:56:54.872,2107859,0.92,-0.38,-0.23,18.9,1.6,3.8,2.6,17.9,26.4,101.119,37.57,0,0,0,0,0,NONE,34,201
2026-05-27T23:56:54.920,2107909,0.89,-0.34,-0.22,4.2,-13.2,7.6,1.9,17.7,25.5,101.116,37.57,0,0,0,0,0,NONE,44,259
2026-05-27T23:56:54.970,2107957,0.94,-0.28,-0.19,7.5,-2.4,10.0,2.5,17.3,26.4,101.118,37.58,0,0,0,0,0,NONE,29,173
2026-05-27T23:56:55.019,2108009,0.89,-0.24,-0.18,6.0,-0.2,7.3,2.5,17.3,26.4,101.121,37.58,0,0,0,0,0,NONE,35,205
2026-05-27T23:56:55.074,2108061,0.94,-0.26,-0.14,13.2,1.3,6.0,2.6,17.4,26.3,101.115,37.58,0,0,0,0,0,NONE,27,147
2026-05-27T23:56:55.120,2108107,0.9,-0.23,-0.14,11.1,1.8,6.7,2.5,16.5,25.1,101.121,37.58,0,0,0,0,0,NONE,37,197
2026-05-27T23:56:55.171,2108159,0.9,-0.28,-0.13,12.5,9.4,-0.9,1.8,16.3,25.9,101.116,37.58,0,0,0,0,0,NONE,44,251
2026-05-27T23:56:55.220,2108207,0.93,-0.27,-0.12,1.3,4.6,2.0,2.7,16.2,25.2,101.12,37.57,0,0,0,0,0,NONE,33,206
2026-05-27T23:56:55.270,2108259,0.94,-0.28,-0.18,4.3,9.6,1.2,2.0,16.8,25.8,101.118,37.58,0,0,0,0,0,NONE,45,224
2026-05-27T23:56:55.324,2108311,1.0,-0.25,-0.11,6.4,0.9,1.6,2.1,16.2,26.0,101.119,37.57,0,0,0,0,0,NONE,36,198
2026-05-27T23:56:55.369,2108359,0.93,-0.25,-0.08,-4.0,-2.4,3.4,2.0,16.3,25.2,101.121,37.57,0,0,0,0,0,NONE,51,331
2026-05-27T23:56:55.420,2108407,0.97,-0.24,-0.14,4.6,-3.7,0.4,2.1,16.9,24.5,101.119,37.57,0,0,0,0,0,NONE,34,181
2026-05-27T23:56:55.469,2108459,0.93,-0.27,-0.13,0.2,-4.2,0.9,2.5,16.7,25.3,101.119,37.57,0,0,0,0,0,NONE,40,187
2026-05-27T23:56:55.519,2108509,0.93,-0.27,-0.12,-0.5,-6.2,1.9,2.7,16.8,23.9,101.118,37.57,0,0,0,0,0,NONE,49,219
2026-05-27T23:56:55.570,2108557,0.95,-0.29,-0.15,0.4,-0.2,0.1,2.6,16.9,25.0,101.122,37.57,0,0,0,0,0,NONE,37,220
2026-05-27T23:56:55.620,2108609,0.92,-0.29,-0.14,-4.2,-3.3,1.8,2.6,17.0,25.5,101.119,37.57,0,0,0,0,0,NONE,34,167
2026-05-27T23:56:55.671,2108661,0.93,-0.28,-0.11,-1.2,-5.0,1.6,3.5,17.5,25.1,101.116,37.57,0,0,0,0,0,NONE,35,198
2026-05-27T23:56:55.720,2108707,0.96,-0.27,-0.13,-2.0,-5.6,1.8,3.7,17.7,24.4,101.12,37.57,0,0,0,0,0,NONE,41,164
2026-05-27T23:56:55.773,2108759,0.93,-0.28,-0.1,-2.3,-5.4,0.2,3.9,17.3,25.1,101.12,37.57,0,1,0,1,2,NONE,62,229
2026-05-27T23:56:55.820,2108807,0.95,-0.3,-0.09,-5.1,-9.5,0.2,4.2,17.2,23.6,101.12,37.56,0,1,0,1,2,NONE,22,124
2026-05-27T23:56:55.873,2108859,0.93,-0.3,-0.07,-3.8,-11.5,1.1,4.6,17.9,24.0,101.117,37.57,0,1,0,0,1,NONE,46,183
2026-05-27T23:56:55.923,2108909,0.94,-0.27,-0.04,-4.3,-13.8,1.2,4.8,18.0,23.8,101.119,37.57,0,1,0,0,1,NONE,36,172
2026-05-27T23:56:55.969,2108957,0.96,-0.29,-0.05,-3.6,-17.3,1.3,5.9,18.1,23.0,101.121,37.56,0,1,0,0,1,NONE,56,283
2026-05-27T23:56:56.023,2109009,0.94,-0.28,-0.02,0.1,-20.6,0.4,5.9,18.5,23.1,101.116,37.57,0,1,0,0,1,NONE,49,233
2026-05-27T23:56:56.072,2109061,0.94,-0.29,-0.07,-5.1,-18.6,1.7,6.4,18.3,23.5,101.116,37.57,0,1,0,0,1,NONE,79,408
2026-05-27T23:56:56.120,2109107,0.93,-0.31,0.03,-0.2,-21.4,0.7,7.3,18.0,22.9,101.119,37.57,0,1,0,0,1,NONE,132,790
2026-05-27T23:56:56.170,2109159,0.93,-0.29,0.03,-4.0,-20.2,1.5,8.4,18.0,21.4,101.116,37.58,0,1,0,0,1,NONE,173,1141
2026-05-27T23:56:56.220,2109207,0.93,-0.28,0.02,-4.4,-23.5,2.1,8.7,18.2,20.9,101.116,37.57,0,1,0,0,1,NONE,168,1211
2026-05-27T23:56:56.269,2109259,0.92,-0.28,0.04,-4.3,-26.4,2.1,9.2,18.3,19.5,101.117,37.57,0,1,0,0,1,NONE,220,1398
2026-05-27T23:56:56.319,2109309,0.91,-0.27,0.03,-5.7,-32.0,2.1,9.4,18.9,19.6,101.115,37.57,0,1,0,0,1,NONE,124,693
2026-05-27T23:56:56.370,2109357,0.9,-0.33,0.1,-3.0,-41.4,1.1,10.3,18.7,18.8,101.12,37.57,0,1,0,0,1,NONE,68,447
2026-05-27T23:56:56.419,2109409,0.85,-0.22,-0.03,-0.6,-26.9,4.3,10.7,18.6,17.5,101.115,37.56,0,1,0,0,1,NONE,55,336
2026-05-27T23:56:56.474,2109461,0.78,-0.26,0.07,-6.0,-56.2,2.8,10.9,19.0,16.0,101.119,37.57,0,1,0,1,2,NONE,81,496
2026-05-27T23:56:56.519,2109507,0.75,-0.22,0.01,-0.2,-46.3,7.4,12.2,17.6,16.1,101.118,37.57,0,1,0,1,2,NONE,99,574
2026-05-27T23:56:56.572,2109559,0.68,-0.17,0.12,-18.1,-64.9,11.2,12.2,18.5,13.7,101.116,37.56,0,1,0,0,1,NONE,108,576
2026-05-27T23:56:56.620,2109607,0.43,-0.11,0.05,8.4,-36.2,1.5,13.5,18.3,12.7,101.119,37.56,0,1,0,0,1,NONE,88,445
2026-05-27T23:56:56.671,2109659,0.38,-0.02,0.02,1.4,-25.5,7.4,13.4,17.9,10.4,101.117,37.56,0,1,1,1,3,NONE,61,322
2026-05-27T23:56:56.719,2109711,0.03,-0.13,-0.01,8.5,6.7,6.4,13.5,18.0,12.0,101.116,37.56,0,1,1,1,3,NONE,80,473
2026-05-27T23:56:56.770,2109759,0.15,-0.05,-0.07,-2.3,8.9,8.8,12.4,17.2,10.7,101.118,37.56,0,1,0,1,2,NONE,61,352
2026-05-27T23:56:56.820,2109807,0.38,-0.1,0.13,-18.5,-9.9,11.4,12.0,17.6,11.6,101.117,37.56,0,1,0,1,2,NONE,118,218
2026-05-27T23:56:56.873,2109860,0.51,-0.09,0.27,2.8,-21.5,1.3,11.3,17.4,11.6,101.12,37.56,0,1,0,0,1,NONE,118,246
2026-05-27T23:56:56.919,2109909,0.74,0.09,-0.07,8.3,-169.9,-13.5,11.0,18.4,9.8,101.125,37.57,0,1,0,0,1,NONE,46,268
2026-05-27T23:56:56.970,2109957,-0.49,-0.29,0.08,16.4,-25.0,-69.8,10.5,19.6,7.6,101.119,37.56,0,1,0,1,2,NONE,304,1322
2026-05-27T23:56:57.019,2110009,3.46,-1.88,4.0,-111.6,-300.0,-5.1,10.5,19.3,5.1,101.141,37.56,0,1,0,1,2,NONE,3465,1893
2026-05-27T23:56:57.074,2110061,0.17,0.78,3.02,125.0,-37.7,-61.1,10.6,19.6,-4.1,101.13,37.56,0,1,1,1,3,NONE,1005,2673
2026-05-27T23:56:57.120,2110107,-1.02,-0.68,2.36,-11.7,-53.5,-56.2,10.2,20.4,-5.5,101.134,37.56,0,1,1,1,3,NONE,1265,1128
2026-05-27T23:56:57.170,2110159,-0.33,0.23,1.41,-5.5,29.4,-9.4,10.6,23.1,-6.4,101.131,37.55,0,1,1,1,3,NONE,83,268
2026-05-27T23:56:57.219,2110207,0.35,-0.49,0.6,7.3,-6.9,-11.4,10.9,23.5,-5.7,101.13,37.56,0,1,1,1,3,NONE,112,334
2026-05-27T23:56:57.272,2110259,-0.13,0.12,0.89,-42.0,-57.3,11.4,10.2,23.1,-8.6,101.129,37.56,0,1,1,1,3,NONE,84,366
2026-05-27T23:56:57.322,2110309,-0.13,-0.33,0.9,12.3,40.3,0.0,10.2,23.7,-8.2,101.129,37.56,0,1,1,1,3,NONE,157,376
2026-05-27T23:56:57.370,2110358,-0.04,-0.13,1.04,22.4,-3.7,18.6,9.9,23.3,-7.7,101.134,37.56,0,1,1,1,3,NONE,114,267
2026-05-27T23:56:57.419,2110409,0.26,-0.34,1.02,42.2,-10.1,11.7,10.0,22.3,-7.2,101.128,37.56,0,1,1,1,3,NONE,173,267
2026-05-27T23:56:57.474,2110461,0.24,-0.53,0.86,-18.6,-3.1,11.4,10.1,22.3,-7.8,101.126,37.56,0,1,1,1,3,NONE,97,232
2026-05-27T23:56:57.520,2110507,0.18,-0.18,0.83,28.9,49.0,-2.2,10.4,22.1,-7.0,101.127,37.57,0,1,1,1,3,NONE,207,310
2026-05-27T23:56:57.575,2110561,0.11,-0.42,1.47,-6.2,28.3,10.0,10.6,22.0,-5.8,101.131,37.56,0,1,0,1,2,NONE,118,307
2026-05-27T23:56:57.619,2110607,0.24,-0.09,0.64,4.5,25.5,2.3,10.8,21.0,-6.3,101.127,37.56,0,1,0,1,2,NONE,204,1553
2026-05-27T23:56:57.672,2110659,-0.05,-0.16,1.08,0.9,43.3,17.4,11.2,21.2,-3.8,101.128,37.55,0,1,1,1,3,NONE,343,1529
2026-05-27T23:56:57.723,2110710,0.48,-0.37,1.01,-4.5,44.7,15.9,11.5,20.8,-3.9,101.129,37.55,0,1,1,1,3,NONE,344,1567
2026-05-27T23:56:57.769,2110759,0.36,0.0,0.84,0.7,39.9,16.1,11.8,19.6,-1.6,101.126,37.56,0,1,0,0,1,NONE,422,2459
2026-05-27T23:56:57.820,2110807,0.55,-0.39,1.0,7.1,-2.2,16.8,11.9,19.2,-1.4,101.13,37.56,0,1,0,0,1,NONE,107,638
2026-05-27T23:56:57.868,2110859,0.43,0.04,0.63,11.5,6.0,20.4,11.9,18.4,-1.7,101.129,37.55,0,1,0,0,1,NONE,100,534
2026-05-27T23:56:57.920,2110909,0.65,-0.47,0.68,-13.2,-9.6,13.9,11.6,18.2,-1.1,101.128,37.56,0,1,0,0,1,NONE,279,1925
2026-05-27T23:56:57.970,2110957,0.6,-0.07,0.73,-33.9,-9.2,-1.7,11.8,18.1,-1.0,101.127,37.55,0,1,1,1,3,NONE,348,1874
2026-05-27T23:56:58.022,2111009,0.2,-0.21,0.76,-13.9,-41.3,-27.6,12.0,18.4,0.1,101.13,37.55,0,1,1,1,3,NONE,113,489
2026-05-27T23:56:58.074,2111061,0.46,-0.01,1.04,-6.9,-23.4,-11.7,11.7,19.6,-2.2,101.128,37.55,0,1,1,1,3,NONE,340,1813
2026-05-27T23:56:58.119,2111107,0.3,-0.08,0.95,9.9,1.5,-2.1,12.2,19.5,-2.5,101.13,37.55,0,1,1,1,3,NONE,390,1785
2026-05-27T23:56:58.172,2111159,0.24,-0.22,0.8,8.2,11.5,4.5,12.0,19.6,-1.8,101.125,37.55,0,1,1,1,3,NONE,239,1262
2026-05-27T23:56:58.220,2111207,0.32,-0.21,0.92,1.2,12.6,9.3,11.8,19.6,-1.7,101.131,37.55,0,1,1,1,3,NONE,256,1476
2026-05-27T23:56:58.272,2111259,0.31,-0.21,0.97,9.0,-2.8,-1.6,12.1,19.4,-2.5,101.129,37.56,0,1,1,1,3,NONE,222,1068
2026-05-27T23:56:58.318,2111309,0.24,-0.28,0.72,6.5,-5.0,-2.2,12.2,19.0,-1.7,101.129,37.55,0,1,1,1,3,NONE,351,1518
2026-05-27T23:56:58.371,2111357,0.23,-0.17,0.87,-1.7,-12.4,-2.9,11.8,19.7,-2.6,101.131,37.55,0,1,1,1,3,NONE,118,690
2026-05-27T23:56:58.419,2111409,0.33,-0.15,1.04,-5.1,6.3,2.9,11.4,19.7,-4.0,101.131,37.55,0,1,1,1,3,NONE,106,737
2026-05-27T23:56:58.474,2111461,0.24,-0.08,1.0,12.5,0.8,2.3,11.8,19.6,-2.5,101.126,37.56,0,1,1,1,3,NONE,100,423
2026-05-27T23:56:58.519,2111507,0.2,-0.18,0.88,10.5,-0.7,0.0,11.8,19.6,-3.5,101.129,37.55,0,1,1,1,3,NONE,53,329
2026-05-27T23:56:58.572,2111559,0.23,-0.2,0.93,10.2,4.6,3.0,11.9,20.1,-3.3,101.131,37.55,0,1,0,1,2,NONE,85,383
2026-05-27T23:56:58.618,2111607,0.28,-0.2,0.76,19.3,0.2,-0.4,11.6,20.1,-3.6,101.128,37.55,0,1,0,1,2,NONE,71,400
2026-05-27T23:56:58.668,2111659,0.23,-0.23,0.99,-4.1,3.4,3.5,11.5,19.8,-4.6,101.129,37.55,0,1,1,1,3,NONE,71,299
2026-05-27T23:56:58.722,2111710,0.21,-0.17,0.86,6.8,4.5,1.6,11.5,19.6,-3.7,101.126,37.55,0,1,1,1,3,NONE,64,223
2026-05-27T23:56:58.771,2111759,0.24,-0.17,1.0,-8.5,-1.2,4.4,11.9,19.9,-4.7,101.129,37.55,0,1,1,1,3,NONE,399,1567
2026-05-27T23:56:58.820,2111807,0.21,-0.17,0.96,7.5,5.1,2.4,11.3,20.1,-4.7,101.128,37.55,0,1,1,1,3,NONE,174,947
2026-05-27T23:56:58.872,2111859,0.23,-0.16,0.89,9.0,7.6,1.1,11.3,20.2,-4.7,101.128,37.55,0,1,1,1,3,NONE,159,662
2026-05-27T23:56:58.921,2111909,0.21,-0.21,0.96,6.4,0.9,-1.0,11.9,20.1,-3.7,101.128,37.55,0,1,1,1,3,NONE,238,1253
2026-05-27T23:56:58.969,2111957,0.22,-0.19,1.01,-1.0,12.6,2.1,11.6,19.8,-3.7,101.127,37.53,0,1,1,1,3,NONE,70,382
2026-05-27T23:56:59.023,2112009,0.27,-0.15,0.53,-22.7,26.7,5.1,11.7,19.5,-4.4,101.126,37.55,0,1,1,1,3,NONE,47,291
2026-05-27T23:56:59.075,2112061,0.18,-0.21,1.2,-6.7,-21.9,-1.3,11.6,19.6,-3.1,101.128,37.55,0,1,1,1,3,NONE,82,294
2026-05-27T23:56:59.118,2112107,0.33,-0.17,1.01,-0.2,-1.5,3.1,11.2,19.4,-4.0,101.128,37.55,0,1,1,1,3,NONE,47,259
2026-05-27T23:56:59.170,2112158,0.25,-0.13,1.0,5.6,3.1,-1.0,11.2,19.4,-4.0,101.129,37.55,0,1,1,1,3,NONE,459,1641
2026-05-27T23:56:59.220,2112207,0.27,-0.15,0.85,9.8,2.1,3.7,12.0,19.4,-3.3,101.127,37.55,0,1,1,1,3,NONE,165,739
2026-05-27T23:56:59.267,2112259,0.23,-0.23,0.88,-5.4,1.3,4.3,11.8,19.9,-4.3,101.127,37.54,0,1,1,1,3,NONE,93,574
2026-05-27T23:56:59.321,2112309,0.21,-0.22,0.98,9.9,4.8,-8.1,11.6,19.9,-2.7,101.128,37.54,0,1,1,1,3,NONE,76,391
2026-05-27T23:56:59.370,2112357,0.16,-0.0,1.17,11.3,12.8,3.2,11.5,19.9,-3.8,101.127,37.55,0,1,1,1,3,NONE,77,305
2026-05-27T23:56:59.422,2112409,0.24,-0.15,0.91,13.7,38.1,9.3,11.2,20.4,-3.1,101.126,37.54,0,1,1,1,3,NONE,56,288
2026-05-27T23:56:59.474,2112461,0.29,-0.17,0.99,28.1,45.4,3.2,11.3,20.3,-1.1,101.125,37.54,0,1,1,1,3,NONE,74,281
2026-05-27T23:56:59.519,2112507,0.43,-0.23,0.9,16.5,42.2,6.7,11.4,20.8,-1.3,101.127,37.54,0,1,1,1,3,NONE,44,250
2026-05-27T23:56:59.572,2112559,0.36,-0.23,0.74,28.5,53.4,-1.5,11.7,20.4,0.5,101.13,37.54,0,1,1,1,3,NONE,64,364
2026-05-27T23:56:59.620,2112607,0.46,-0.29,1.0,4.1,37.5,-3.3,11.1,20.7,1.6,101.128,37.54,0,1,1,1,3,NONE,56,231
2026-05-27T23:56:59.671,2112659,0.44,-0.25,0.72,13.7,54.0,4.4,11.5,20.4,2.1,101.128,37.55,0,1,1,1,3,NONE,42,209
2026-05-27T23:56:59.724,2112710,0.52,-0.31,0.91,3.7,50.4,-4.1,11.0,20.9,4.5,101.129,37.53,0,1,1,1,3,NONE,42,208
2026-05-27T23:56:59.768,2112759,0.49,-0.14,0.68,17.8,60.1,-14.8,10.6,21.5,5.7,101.127,37.53,0,1,1,1,3,NONE,50,282
2026-05-27T23:56:59.819,2112807,0.54,-0.22,0.89,27.8,59.0,-17.0,10.2,21.9,5.4,101.127,37.54,0,1,1,1,3,NONE,46,259
2026-05-27T23:56:59.872,2112859,0.63,-0.29,0.52,28.4,55.2,-1.9,10.4,21.9,7.7,101.129,37.54,0,1,1,1,3,NONE,155,987
2026-05-27T23:56:59.922,2112909,0.63,-0.36,0.74,24.7,36.3,6.1,10.0,21.8,8.9,101.127,37.54,0,1,1,1,3,NONE,604,2092
2026-05-27T23:56:59.970,2112957,0.66,-0.4,0.46,24.0,44.8,13.8,9.9,21.2,9.5,101.13,37.54,0,1,1,1,3,NONE,387,1639
2026-05-27T23:57:00.019,2113009,0.65,-0.36,0.72,18.9,60.8,14.0,9.1,20.6,10.1,101.127,37.53,0,1,1,1,3,NONE,798,2842
2026-05-27T23:57:00.073,2113061,0.75,-0.35,0.45,18.4,69.6,3.4,8.4,19.9,12.1,101.129,37.53,0,1,0,0,1,NONE,253,1389
2026-05-27T23:57:00.119,2113107,0.74,-0.36,0.62,25.8,82.2,6.1,6.9,19.5,14.2,101.132,37.53,0,1,0,0,1,NONE,87,365
2026-05-27T23:57:00.172,2113159,0.82,-0.36,0.38,15.8,67.5,0.9,6.0,19.6,14.4,101.129,37.54,0,1,0,0,1,NONE,71,370
2026-05-27T23:57:00.219,2113207,0.78,-0.38,0.24,18.1,28.6,-24.1,4.8,19.9,17.0,101.125,37.53,0,1,0,0,1,NONE,120,706
2026-05-27T23:57:00.272,2113259,0.8,-0.34,0.34,27.0,63.0,-3.4,4.9,20.1,17.5,101.131,37.53,0,0,0,0,0,NONE,113,378
2026-05-27T23:57:00.322,2113311,0.79,-0.47,0.14,10.7,61.5,0.4,3.6,19.8,16.6,101.125,37.54,0,0,0,0,0,NONE,1278,4885
2026-05-27T23:57:00.372,2113359,0.92,-0.3,0.22,26.4,68.2,-3.2,2.8,19.4,19.6,101.126,37.53,0,0,0,0,0,NONE,914,4333
2026-05-27T23:57:00.420,2113407,0.76,-0.49,0.08,18.9,77.1,-23.1,1.0,19.5,20.2,101.128,37.53,0,0,0,0,0,NONE,225,567
2026-05-27T23:57:00.466,2113459,0.83,-0.42,0.05,26.7,104.4,-19.2,-0.6,19.3,22.4,101.127,37.53,0,0,0,0,0,NONE,898,5052
2026-05-27T23:57:00.522,2113509,0.84,-0.45,-0.05,24.6,101.7,-6.0,-3.1,19.6,23.4,101.126,37.53,0,0,0,0,0,NONE,288,1302
2026-05-27T23:57:00.567,2113557,0.85,-0.41,-0.07,43.8,126.5,-23.3,-5.2,19.4,24.1,101.125,37.53,0,0,0,0,0,NONE,60,260
2026-05-27T23:57:00.623,2113609,0.79,-0.37,-0.06,85.4,145.8,-45.5,-8.5,18.6,24.4,101.131,37.53,0,0,0,0,0,NONE,46,237
2026-05-27T23:57:00.674,2113661,0.89,-0.51,-0.55,76.4,128.7,-46.6,-12.5,17.1,24.6,101.126,37.53,0,0,0,0,0,NONE,97,306
2026-05-27T23:57:00.716,2113707,0.69,-0.41,-0.48,53.6,71.7,-32.1,-14.9,15.8,24.4,101.131,37.53,0,0,0,0,0,NONE,178,185
2026-05-27T23:57:00.768,2113759,0.77,-0.53,-0.87,9.3,8.9,-35.8,-15.8,15.1,24.0,101.127,37.53,0,0,0,0,0,NONE,65,245
2026-05-27T23:57:00.816,2113807,0.72,-0.6,-0.63,13.8,-33.8,-12.9,-15.2,15.4,24.0,101.127,37.53,0,0,0,0,0,NONE,181,751
2026-05-27T23:57:00.869,2113860,0.67,-0.58,-0.73,8.4,-21.1,-9.7,-13.5,15.9,25.6,101.129,37.53,0,0,0,0,0,NONE,179,278
2026-05-27T23:57:00.921,2113909,0.61,-0.6,-0.67,13.4,-40.7,-27.2,-12.9,15.2,24.8,101.125,37.53,0,0,0,0,0,NONE,101,330
2026-05-27T23:57:00.971,2113957,0.63,-0.61,-0.67,2.0,-68.5,-18.2,-11.1,14.7,25.8,101.126,37.52,0,0,0,0,0,NONE,195,966
2026-05-27T23:57:01.022,2114009,0.62,-0.56,-0.56,-8.7,-69.6,-13.2,-8.6,15.3,24.0,101.126,37.53,0,0,0,0,0,NONE,170,740
2026-05-27T23:57:01.071,2114061,0.52,-0.42,-0.53,2.3,-47.7,-5.9,-6.6,15.8,24.1,101.129,37.53,0,0,0,0,0,NONE,180,740
2026-05-27T23:57:01.119,2114107,0.81,-0.67,-0.69,-7.4,-10.5,-20.6,-5.4,15.7,24.7,101.125,37.52,0,0,0,0,0,NONE,125,590
2026-05-27T23:57:01.174,2114161,0.74,-0.45,-0.43,7.1,-16.2,17.7,-3.7,16.9,24.6,101.128,37.52,0,0,0,0,0,NONE,395,1369
2026-05-27T23:57:01.219,2114207,0.84,-0.68,-0.05,-21.4,-68.8,-9.5,-3.0,16.4,23.1,101.126,37.52,0,0,0,0,0,NONE,615,2606
2026-05-27T23:57:01.272,2114259,0.66,-0.52,-0.47,47.1,-31.7,2.9,-1.3,17.0,23.6,101.125,37.52,0,0,0,0,0,NONE,691,2428
2026-05-27T23:57:01.324,2114311,0.76,-0.92,0.27,-48.3,-22.7,-28.8,0.6,17.0,22.2,101.128,37.52,0,0,0,0,0,NONE,503,1765
2026-05-27T23:57:01.367,2114359,0.44,-0.56,-0.26,4.6,-2.4,-33.8,0.9,19.3,20.9,101.125,37.52,0,1,0,1,2,NONE,453,1646
2026-05-27T23:57:01.420,2114407,0.41,-0.73,0.02,33.4,-34.4,-38.2,0.7,20.1,22.4,101.129,37.52,0,1,0,1,2,NONE,238,692
2026-05-27T23:57:01.472,2114459,0.47,-0.71,-0.18,12.0,12.6,2.9,2.8,20.0,20.3,101.127,37.52,0,0,0,0,0,NONE,135,251
2026-05-27T23:57:01.520,2114507,0.57,-0.66,0.15,-35.0,23.9,9.5,3.1,19.9,21.4,101.127,37.52,0,0,0,0,0,NONE,48,199
2026-05-27T23:57:01.573,2114559,0.38,-0.16,-0.02,29.2,78.6,33.1,2.1,19.3,22.9,101.124,37.52,0,0,0,0,0,NONE,95,416
2026-05-27T23:57:01.618,2114609,0.98,-0.79,-0.64,14.4,73.4,40.7,-1.2,19.3,24.2,101.125,37.51,0,0,0,0,0,NONE,92,406
2026-05-27T23:57:01.669,2114657,1.07,-0.91,-0.69,-4.6,114.7,59.1,-3.4,18.7,25.3,101.126,37.52,0,0,0,0,0,NONE,291,263
2026-05-27T23:57:01.718,2114709,0.94,-0.57,-1.41,67.4,200.0,83.6,-7.4,17.2,27.3,101.125,37.52,0,0,0,0,0,NONE,71,290
2026-05-27T23:57:01.769,2114761,1.13,-0.82,-1.31,55.4,57.8,42.7,-12.8,14.4,26.7,101.127,37.52,0,0,0,0,0,NONE,97,357
2026-05-27T23:57:01.820,2114807,0.95,-0.56,-1.21,34.9,25.7,22.6,-15.6,12.3,26.4,101.129,37.52,0,0,0,0,0,NONE,145,326
2026-05-27T23:57:01.873,2114859,0.93,-0.37,-0.79,11.3,-6.0,26.7,-16.5,11.9,25.9,101.125,37.51,0,0,0,0,0,NONE,91,316
2026-05-27T23:57:01.917,2114907,0.63,-0.39,-0.59,35.7,59.0,6.8,-16.3,12.1,27.1,101.128,37.51,0,0,0,0,0,NONE,154,235
2026-05-27T23:57:01.968,2114959,0.67,-0.26,-0.77,-5.2,13.9,4.9,-16.5,11.4,26.9,101.122,37.51,0,0,0,0,0,NONE,54,212
2026-05-27T23:57:02.019,2115011,0.58,-0.4,-0.67,-11.1,11.1,5.0,-16.5,11.5,26.3,101.121,37.52,0,0,0,0,0,NONE,80,194
2026-05-27T23:57:02.071,2115059,0.53,-0.32,-0.72,-19.5,12.5,19.5,-16.3,12.6,27.3,101.123,37.51,0,0,0,0,0,NONE,60,292
2026-05-27T23:57:02.117,2115107,0.67,-0.37,-0.91,-33.6,4.3,23.2,-16.7,12.9,27.4,101.121,37.51,0,0,0,0,0,NONE,52,312
2026-05-27T23:57:02.173,2115160,0.48,-0.38,-0.53,-43.9,-6.7,25.7,-16.6,13.5,27.5,101.123,37.51,0,0,0,0,0,NONE,53,270
2026-05-27T23:57:02.217,2115209,0.6,-0.39,-0.69,-39.7,10.7,26.4,-16.1,15.3,28.6,101.122,37.5,0,0,0,0,0,NONE,44,213
2026-05-27T23:57:02.270,2115257,0.49,-0.44,-0.57,-34.9,3.3,10.1,-15.7,16.9,30.5,101.119,37.5,0,0,0,0,0,NONE,47,223
2026-05-27T23:57:02.316,2115309,0.45,-0.2,-0.39,-15.4,-18.1,6.2,-16.1,17.7,30.1,101.121,37.5,0,0,0,0,0,NONE,72,258
2026-05-27T23:57:02.374,2115361,0.39,-0.27,-0.43,-19.0,-28.7,6.0,-14.9,18.4,31.1,101.122,37.5,0,0,0,0,0,NONE,58,308
2026-05-27T23:57:02.417,2115407,0.37,-0.24,-0.54,-4.4,5.5,-2.8,-14.1,19.2,31.8,101.119,37.5,0,0,0,0,0,NONE,60,270
2026-05-27T23:57:02.472,2115459,0.25,-0.38,-0.5,10.5,-3.3,2.6,-13.1,19.5,32.0,101.118,37.5,0,0,0,0,0,NONE,93,382
2026-05-27T23:57:02.516,2115507,0.54,-0.44,-0.49,-27.6,10.1,14.5,-13.4,19.3,30.5,101.123,37.5,0,0,0,0,0,NONE,61,294
2026-05-27T23:57:02.572,2115559,0.43,-0.39,-0.39,-23.5,-7.7,15.0,-13.0,19.3,31.2,101.119,37.5,0,0,0,0,0,NONE,61,272
2026-05-27T23:57:02.621,2115609,0.65,-0.39,-0.52,-21.0,-15.0,15.0,-13.1,20.9,31.1,101.117,37.5,0,0,0,0,0,NONE,44,194
2026-05-27T23:57:02.673,2115660,0.76,-0.59,-0.6,9.3,-8.5,2.4,-13.1,20.9,31.1,101.12,37.5,0,0,0,0,0,NONE,63,300
2026-05-27T23:57:02.721,2115709,0.61,-0.52,-0.41,-19.0,-9.8,13.2,-12.0,22.4,32.8,101.12,37.5,0,0,0,0,0,NONE,48,190
2026-05-27T23:57:02.767,2115761,0.67,-0.6,-0.5,-13.7,-6.5,9.3,-11.8,23.2,31.8,101.117,37.5,0,0,0,0,0,NONE,42,217
2026-05-27T23:57:02.820,2115807,0.57,-0.59,-0.42,-19.6,-5.1,21.1,-11.6,23.6,32.3,101.123,37.5,0,0,0,0,0,NONE,47,230
2026-05-27T23:57:02.867,2115859,0.75,-0.56,-0.67,-31.5,13.7,32.5,-11.7,24.4,32.1,101.114,37.5,0,0,0,0,0,NONE,92,466
2026-05-27T23:57:02.920,2115907,0.73,-0.29,-0.53,-28.4,6.7,35.7,-11.7,26.2,32.5,101.118,37.49,0,0,0,0,0,NONE,72,381
2026-05-27T23:57:02.973,2115959,0.76,-0.42,-0.46,-9.9,-7.6,20.7,-11.9,26.3,32.0,101.118,37.5,0,0,0,0,0,NONE,51,318
2026-05-27T23:57:03.018,2116010,0.64,-0.49,-0.39,-7.6,-10.4,22.8,-11.0,26.5,33.0,101.12,37.5,0,0,0,0,0,NONE,53,280
2026-05-27T23:57:03.071,2116059,0.7,-0.43,-0.44,-5.7,-4.4,22.6,-10.8,26.6,31.4,101.118,37.5,0,1,0,1,2,NONE,119,717
2026-05-27T23:57:03.116,2116107,0.77,-0.49,-0.48,-1.9,-0.9,23.0,-10.7,26.9,33.2,101.117,37.5,0,1,0,1,2,NONE,150,975
2026-05-27T23:57:03.172,2116159,0.78,-0.31,-0.44,-1.0,-2.7,21.4,-10.3,26.8,32.5,101.118,37.49,0,1,0,1,2,NONE,54,263
2026-05-27T23:57:03.217,2116209,0.79,-0.42,-0.42,1.8,2.3,13.7,-10.4,27.0,32.1,101.119,37.5,0,1,0,1,2,NONE,40,230
2026-05-27T23:57:03.266,2116258,0.76,-0.37,-0.43,9.3,-4.3,7.4,-10.0,26.3,31.4,101.118,37.5,0,1,0,0,1,NONE,47,225
2026-05-27T23:57:03.319,2116309,0.82,-0.34,-0.42,19.5,-5.6,3.4,-10.1,25.9,32.9,101.124,37.5,0,1,0,0,1,NONE,46,289
2026-05-27T23:57:03.374,2116361,0.76,-0.36,-0.44,9.6,-10.2,2.5,-9.2,25.7,31.7,101.12,37.5,0,1,0,0,1,NONE,32,160
2026-05-27T23:57:03.421,2116407,0.93,-0.25,-0.4,27.6,-4.7,-3.8,-9.4,24.7,31.8,101.121,37.49,0,1,0,0,1,NONE,50,226
2026-05-27T23:57:03.470,2116459,1.02,-0.44,-0.38,2.6,-11.2,5.6,-9.1,24.3,31.5,101.117,37.5,0,0,0,0,0,NONE,42,215
2026-05-27T23:57:03.520,2116507,0.88,-0.23,-0.4,4.9,-13.6,6.3,-8.4,24.5,31.5,101.117,37.49,0,0,0,0,0,NONE,45,205
2026-05-27T23:57:03.572,2116559,0.87,-0.37,-0.19,7.1,-20.6,5.6,-7.6,24.2,31.6,101.12,37.5,0,0,0,0,0,NONE,27,147
2026-05-27T23:57:03.624,2116611,0.82,-0.36,-0.25,-9.6,-18.8,15.6,-6.8,24.2,31.7,101.118,37.49,0,0,0,0,0,NONE,36,116
2026-05-27T23:57:03.666,2116659,0.82,-0.23,-0.26,-3.6,-1.2,3.1,-6.6,24.7,31.9,101.118,37.49,0,0,0,0,0,NONE,57,192
2026-05-27T23:57:03.717,2116707,0.9,-0.37,-0.45,-7.8,3.0,-3.7,-6.2,25.3,32.4,101.118,37.49,0,0,0,0,0,NONE,32,146
2026-05-27T23:57:03.766,2116759,0.77,-0.28,-0.35,21.6,-3.7,-12.6,-6.1,25.9,31.8,101.118,37.49,0,0,0,0,0,NONE,36,186
2026-05-27T23:57:03.818,2116809,0.84,-0.47,-0.29,12.0,5.9,-5.2,-6.0,24.6,31.4,101.117,37.48,0,0,0,0,0,NONE,32,133
2026-05-27T23:57:03.867,2116858,0.81,-0.35,-0.27,8.7,15.4,-3.8,-6.2,24.6,31.3,101.121,37.49,0,0,0,0,0,NONE,52,210
2026-05-27T23:57:03.923,2116909,0.87,-0.39,-0.31,3.8,17.9,0.4,-6.6,24.4,30.9,101.12,37.49,0,0,0,0,0,NONE,26,111
2026-05-27T23:57:03.969,2116961,0.85,-0.36,-0.38,7.0,11.2,-1.6,-7.1,24.3,31.2,101.121,37.49,0,0,0,0,0,NONE,33,155
2026-05-27T23:57:04.018,2117007,0.83,-0.41,-0.35,12.6,4.9,-3.9,-7.0,24.3,32.1,101.115,37.48,0,0,0,0,0,NONE,34,209
2026-05-27T23:57:04.073,2117059,0.85,-0.45,-0.33,3.8,3.5,-1.1,-6.6,23.6,32.2,101.12,37.48,0,0,0,0,0,NONE,24,142
2026-05-27T23:57:04.118,2117107,0.87,-0.37,-0.37,0.7,7.8,1.8,-7.0,24.2,30.4,101.119,37.48,0,0,0,0,0,NONE,26,166
2026-05-27T23:57:04.171,2117159,0.85,-0.38,-0.39,12.5,8.3,-0.1,-7.2,23.7,30.7,101.121,37.48,0,0,0,0,0,NONE,37,236
2026-05-27T23:57:04.217,2117209,0.83,-0.39,-0.37,10.6,6.6,1.3,-7.6,23.8,31.0,101.115,37.48,0,0,0,0,0,NONE,40,252
2026-05-27T23:57:04.268,2117258,0.84,-0.38,-0.39,9.0,10.9,1.9,-7.4,23.7,31.2,101.119,37.48,0,0,0,0,0,NONE,41,245
2026-05-27T23:57:04.321,2117309,0.8,-0.37,-0.38,9.1,4.5,1.7,-7.4,23.4,31.8,101.115,37.48,0,0,0,0,0,NONE,42,215
2026-05-27T23:57:04.367,2117361,0.83,-0.39,-0.41,10.9,7.2,1.6,-7.7,23.6,32.0,101.12,37.48,0,0,0,0,0,NONE,43,279
2026-05-27T23:57:04.421,2117407,0.83,-0.38,-0.42,7.9,7.0,2.8,-7.8,22.9,31.8,101.121,37.49,0,0,0,0,0,NONE,36,238
2026-05-27T23:57:04.472,2117459,0.83,-0.4,-0.4,2.7,5.1,4.1,-8.0,22.8,32.7,101.118,37.48,0,0,0,0,0,NONE,36,243
2026-05-27T23:57:04.516,2117507,0.83,-0.36,-0.37,4.9,4.2,2.4,-8.7,22.8,31.4,101.117,37.49,0,0,0,0,0,NONE,62,283
2026-05-27T23:57:04.572,2117559,0.87,-0.36,-0.41,2.4,3.8,2.5,-8.2,23.2,32.0,101.116,37.48,0,0,0,0,0,NONE,97,521
2026-05-27T23:57:04.623,2117611,0.78,-0.38,-0.39,1.4,-1.3,3.9,-8.3,23.2,32.3,101.117,37.49,0,0,0,0,0,NONE,135,767
2026-05-27T23:57:04.672,2117659,0.84,-0.35,-0.43,3.8,-1.6,1.9,-8.0,23.3,32.0,101.118,37.48,0,0,0,0,0,NONE,233,1075
2026-05-27T23:57:04.716,2117707,0.79,-0.37,-0.37,1.5,-5.2,0.8,-7.8,22.9,32.5,101.117,37.49,0,0,0,0,0,NONE,145,711
2026-05-27T23:57:04.772,2117759,0.85,-0.38,-0.4,4.5,0.9,-0.4,-7.7,23.7,30.5,101.121,37.48,0,0,0,0,0,NONE,63,314
2026-05-27T23:57:04.817,2117809,0.81,-0.36,-0.37,8.2,0.3,-1.6,-7.4,23.0,31.4,101.117,37.48,0,0,0,0,0,NONE,318,1558
2026-05-27T23:57:04.866,2117858,0.83,-0.38,-0.39,7.1,1.7,-2.4,-8.2,23.2,32.2,101.119,37.48,0,0,0,0,0,NONE,195,962
2026-05-27T23:57:04.922,2117909,0.81,-0.39,-0.37,4.6,2.5,-1.1,-7.2,23.3,31.7,101.116,37.48,0,0,0,0,0,NONE,112,607
2026-05-27T23:57:04.974,2117961,0.85,-0.39,-0.38,5.7,4.9,-1.0,-7.1,23.2,32.1,101.119,37.48,0,0,0,0,0,NONE,215,1075
2026-05-27T23:57:05.017,2118007,0.82,-0.39,-0.38,2.0,4.0,2.0,-6.8,23.2,30.4,101.118,37.48,0,0,0,0,0,NONE,211,1019
2026-05-27T23:57:05.070,2118059,0.84,-0.39,-0.37,2.9,4.0,1.3,-6.9,23.3,31.4,101.118,37.48,0,0,0,0,0,NONE,206,1031
2026-05-27T23:57:05.115,2118107,0.81,-0.39,-0.39,0.3,3.2,3.6,-7.3,23.3,31.6,101.116,37.48,0,0,0,0,0,NONE,46,261
2026-05-27T23:57:05.165,2118159,0.85,-0.38,-0.35,0.4,1.9,3.3,-6.4,23.3,30.5,101.118,37.47,0,0,0,0,0,NONE,42,246
2026-05-27T23:57:05.221,2118209,0.85,-0.4,-0.39,-2.6,2.9,4.8,-7.0,24.0,31.2,101.122,37.48,0,0,0,0,0,NONE,45,208
2026-05-27T23:57:05.268,2118257,0.83,-0.37,-0.37,0.1,0.6,3.5,-7.2,23.5,30.9,101.113,37.48,0,0,0,0,0,NONE,25,141
2026-05-27T23:57:05.322,2118309,0.82,-0.37,-0.36,0.4,-0.1,2.4,-7.0,23.7,30.7,101.117,37.48,0,0,0,0,0,NONE,38,214
2026-05-27T23:57:05.374,2118361,0.82,-0.38,-0.38,1.0,1.8,2.6,-6.9,23.2,30.0,101.121,37.48,0,0,0,0,0,NONE,35,196
2026-05-27T23:57:05.419,2118407,0.85,-0.42,-0.38,-2.0,0.9,2.2,-6.8,24.1,31.7,101.119,37.48,0,0,0,0,0,NONE,41,215
2026-05-27T23:57:05.472,2118459,0.84,-0.38,-0.36,1.6,-0.4,2.9,-6.5,23.7,30.7,101.121,37.48,0,0,0,0,0,NONE,51,251
2026-05-27T23:57:05.519,2118507,0.84,-0.39,-0.37,-0.5,0.3,2.2,-6.2,24.4,31.5,101.118,37.47,0,0,0,0,0,NONE,46,279
2026-05-27T23:57:05.572,2118559,0.85,-0.37,-0.34,2.4,-2.4,1.2,-6.1,24.2,31.4,101.117,37.47,0,0,0,0,0,NONE,49,285
2026-05-27T23:57:05.618,2118611,0.83,-0.4,-0.34,1.6,-2.3,-0.4,-6.1,24.4,30.0,101.121,37.48,0,0,0,0,0,NONE,48,221
2026-05-27T23:57:05.671,2118659,0.84,-0.39,-0.34,1.2,-2.0,0.5,-5.3,24.2,29.7,101.119,37.48,0,0,0,0,0,NONE,49,224
2026-05-27T23:57:05.720,2118707,0.84,-0.4,-0.33,0.1,-1.2,1.8,-5.8,24.1,30.6,101.12,37.48,0,0,0,0,0,NONE,44,220
2026-05-27T23:57:05.765,2118759,0.84,-0.4,-0.35,1.5,1.2,2.6,-5.2,23.9,30.8,101.119,37.48,0,0,0,0,0,NONE,53,281
2026-05-27T23:57:05.821,2118809,0.85,-0.38,-0.37,1.0,2.0,2.4,-5.2,24.6,31.7,101.117,37.48,0,0,0,0,0,NONE,46,210
2026-05-27T23:57:05.870,2118858,0.84,-0.39,-0.33,2.5,2.5,2.0,-5.2,24.4,31.3,101.115,37.47,0,0,0,0,0,NONE,58,211
2026-05-27T23:57:05.917,2118909,0.84,-0.38,-0.34,3.5,3.6,2.0,-4.9,24.6,30.2,101.117,37.46,0,0,0,0,0,NONE,60,217
2026-05-27T23:57:05.974,2118961,0.84,-0.38,-0.32,8.3,4.3,0.7,-5.0,25.1,31.6,101.118,37.47,0,0,0,0,0,NONE,45,169
2026-05-27T23:57:06.015,2119007,0.85,-0.39,-0.31,5.6,4.3,1.6,-5.1,25.0,30.8,101.119,37.47,0,0,0,0,0,NONE,40,167
2026-05-27T23:57:06.069,2119059,0.84,-0.39,-0.34,6.8,6.2,1.6,-4.8,24.8,30.6,101.117,37.47,0,0,0,0,0,NONE,41,244
2026-05-27T23:57:06.119,2119107,0.85,-0.41,-0.35,7.4,8.3,1.5,-4.8,24.7,34.0,101.12,37.47,0,0,0,0,0,NONE,36,181
2026-05-27T23:57:06.169,2119156,0.86,-0.39,-0.34,8.2,7.6,2.3,-4.8,24.7,34.0,101.117,37.47,0,0,0,0,0,NONE,41,179
2026-05-27T23:57:06.216,2119211,0.84,-0.39,-0.33,8.1,6.2,2.6,-4.7,24.1,32.2,101.118,37.48,0,0,0,0,0,NONE,45,294
2026-05-27T23:57:06.270,2119257,0.84,-0.38,-0.34,6.8,6.9,2.3,-5.4,23.5,32.8,101.118,37.47,0,0,0,0,0,NONE,207,1453
2026-05-27T23:57:06.320,2119307,0.85,-0.39,-0.35,8.2,5.2,1.0,-5.3,23.1,31.6,101.117,37.48,0,0,0,0,0,NONE,95,418
2026-05-27T23:57:06.366,2119358,0.86,-0.39,-0.34,3.8,4.8,2.4,-5.7,23.3,31.2,101.117,37.47,0,0,0,0,0,NONE,228,1100
2026-05-27T23:57:06.417,2119409,0.86,-0.4,-0.35,0.6,-0.1,2.4,-5.7,23.3,30.6,101.117,37.48,0,0,0,0,0,NONE,97,527
2026-05-27T23:57:06.470,2119457,0.84,-0.38,-0.36,3.4,4.5,2.4,-5.1,23.7,30.3,101.12,37.47,0,0,0,0,0,NONE,112,625
2026-05-27T23:57:06.515,2119509,0.84,-0.38,-0.35,4.0,1.9,2.1,-5.0,23.7,32.1,101.117,37.47,0,0,0,0,0,NONE,255,1416
2026-05-27T23:57:06.572,2119559,0.83,-0.4,-0.34,2.6,1.8,2.0,-5.7,23.3,31.0,101.12,37.47,0,0,0,0,0,NONE,207,1323
2026-05-27T23:57:06.617,2119607,0.85,-0.4,-0.37,1.0,1.7,2.5,-4.7,23.6,31.2,101.122,37.47,0,0,0,0,0,NONE,115,700
2026-05-27T23:57:06.671,2119659,0.84,-0.38,-0.36,1.9,2.4,2.1,-5.5,24.1,32.1,101.118,37.47,0,0,0,0,0,NONE,112,614
2026-05-27T23:57:06.722,2119710,0.83,-0.38,-0.36,5.4,2.6,1.6,-5.0,23.6,31.8,101.117,37.47,0,0,0,0,0,NONE,183,859
2026-05-27T23:57:06.772,2119759,0.83,-0.39,-0.36,3.3,4.5,2.6,-5.3,23.4,31.2,101.118,37.47,0,0,0,0,0,NONE,227,1527
2026-05-27T23:57:06.820,2119807,0.84,-0.38,-0.36,5.4,4.6,2.2,-5.3,23.3,31.9,101.114,37.47,0,0,0,0,0,NONE,187,1066
2026-05-27T23:57:06.868,2119859,0.84,-0.39,-0.32,6.5,7.1,2.3,-5.6,23.7,31.2,101.117,37.47,0,0,0,0,0,NONE,189,1070
2026-05-27T23:57:06.918,2119909,0.84,-0.39,-0.37,4.7,5.2,1.8,-5.8,23.3,31.7,101.119,37.47,0,0,0,0,0,NONE,115,626
2026-05-27T23:57:06.966,2119957,0.83,-0.4,-0.37,3.2,4.9,2.3,-5.7,23.7,31.6,101.117,37.48,0,0,0,0,0,NONE,130,776
2026-05-27T23:57:07.021,2120009,0.84,-0.39,-0.35,3.2,3.5,2.4,-5.7,23.4,31.6,101.119,37.47,0,0,0,0,0,NONE,75,521
2026-05-27T23:57:07.070,2120061,0.83,-0.39,-0.37,2.4,2.7,1.5,-5.7,23.2,31.1,101.115,37.47,0,0,0,0,0,NONE,31,219
2026-05-27T23:57:07.119,2120107,0.84,-0.4,-0.35,2.1,1.5,1.9,-5.7,23.7,31.5,101.118,37.47,0,0,0,0,0,NONE,33,194
2026-05-27T23:57:07.172,2120159,0.84,-0.38,-0.36,2.1,4.8,1.8,-5.9,23.3,30.9,101.116,37.47,0,0,0,0,0,NONE,48,208
2026-05-27T23:57:07.220,2120207,0.83,-0.41,-0.33,-0.4,-0.5,2.5,-5.6,24.1,30.6,101.122,37.47,0,0,0,0,0,NONE,34,161
2026-05-27T23:57:07.269,2120259,0.85,-0.4,-0.36,2.5,4.8,2.0,-5.3,24.0,31.7,101.118,37.47,0,0,0,0,0,NONE,39,208
2026-05-27T23:57:07.325,2120310,0.83,-0.39,-0.34,1.5,4.4,2.4,-6.1,23.9,31.3,101.12,37.47,0,0,0,0,0,NONE,44,203
2026-05-27T23:57:07.367,2120359,0.84,-0.39,-0.33,0.2,6.3,2.9,-6.2,24.6,32.2,101.119,37.47,0,0,0,0,0,NONE,62,228
2026-05-27T23:57:07.417,2120407,0.85,-0.39,-0.36,-0.9,2.6,1.8,-6.3,24.4,31.1,101.114,37.47,0,0,0,0,0,NONE,33,142
2026-05-27T23:57:07.472,2120459,0.83,-0.39,-0.33,-1.8,2.6,3.2,-5.9,24.1,31.1,101.118,37.47,0,0,0,0,0,NONE,62,330
2026-05-27T23:57:07.521,2120509,0.84,-0.38,-0.33,1.0,3.2,2.4,-6.0,24.7,30.9,101.114,37.46,0,0,0,0,0,NONE,164,1105
2026-05-27T23:57:07.570,2120557,0.85,-0.39,-0.34,-0.1,3.8,3.2,-6.1,24.7,32.4,101.117,37.46,0,0,0,0,0,NONE,150,831
2026-05-27T23:57:07.618,2120609,0.86,-0.39,-0.35,1.3,3.1,2.3,-5.8,24.9,30.7,101.115,37.46,0,0,0,0,0,NONE,59,331
2026-05-27T23:57:07.674,2120661,0.84,-0.4,-0.34,2.2,2.7,2.6,-6.5,24.5,31.2,101.119,37.46,0,0,0,0,0,NONE,80,558
2026-05-27T23:57:07.717,2120707,0.84,-0.38,-0.33,3.6,2.6,2.5,-6.1,25.3,32.0,101.118,37.46,0,0,0,0,0,NONE,86,388
2026-05-27T23:57:07.769,2120759,0.85,-0.4,-0.33,1.9,2.9,2.9,-6.1,25.3,30.8,101.114,37.46,0,0,0,0,0,NONE,85,428
2026-05-27T23:57:07.816,2120807,0.85,-0.38,-0.34,1.8,4.6,4.0,-5.5,25.0,31.0,101.116,37.47,0,0,0,0,0,NONE,55,267
2026-05-27T23:57:07.873,2120859,0.85,-0.39,-0.34,4.0,2.5,2.7,-5.5,24.5,31.9,101.119,37.47,0,0,0,0,0,NONE,45,258
2026-05-27T23:57:07.921,2120909,0.85,-0.38,-0.36,0.6,3.0,2.3,-5.7,24.6,30.9,101.121,37.47,0,0,0,0,0,NONE,37,172
2026-05-27T23:57:07.971,2120957,0.84,-0.38,-0.33,2.1,2.7,2.5,-5.4,24.9,31.9,101.118,37.46,0,0,0,0,0,NONE,39,190
2026-05-27T23:57:08.022,2121009,0.85,-0.39,-0.35,2.4,2.9,2.3,-5.7,24.4,32.8,101.118,37.47,0,0,0,0,0,NONE,35,195
2026-05-27T23:57:08.073,2121061,0.85,-0.38,-0.34,3.1,1.8,2.1,-5.3,24.5,31.2,101.117,37.47,0,0,0,0,0,NONE,36,221
2026-05-27T23:57:08.118,2121107,0.85,-0.37,-0.34,4.9,2.7,0.9,-4.7,24.6,31.2,101.117,37.46,0,0,0,0,0,NONE,39,256
2026-05-27T23:57:08.172,2121159,0.84,-0.39,-0.34,4.8,2.7,0.9,-5.5,24.5,31.4,101.118,37.46,0,0,0,0,0,NONE,40,193
2026-05-27T23:57:08.220,2121207,0.85,-0.39,-0.34,4.5,2.1,1.3,-5.0,24.6,31.4,101.117,37.46,0,0,0,0,0,NONE,41,282
2026-05-27T23:57:08.272,2121259,0.84,-0.38,-0.33,5.7,2.4,0.7,-5.1,24.6,31.5,101.117,37.46,0,0,0,0,0,NONE,28,190
2026-05-27T23:57:08.323,2121311,0.85,-0.4,-0.35,4.1,3.2,1.6,-4.9,24.8,32.0,101.116,37.46,0,0,0,0,0,NONE,33,189
2026-05-27T23:57:08.371,2121359,0.84,-0.38,-0.35,6.0,2.3,0.8,-5.5,24.8,31.2,101.116,37.46,0,0,0,0,0,NONE,37,181
2026-05-27T23:57:08.417,2121407,0.86,-0.4,-0.36,5.4,1.0,0.1,-4.7,24.1,31.5,101.118,37.46,0,0,0,0,0,NONE,27,120
2026-05-27T23:57:08.472,2121459,0.84,-0.39,-0.34,6.1,2.9,-0.4,-5.7,24.4,31.0,101.119,37.47,0,0,0,0,0,NONE,27,153
2026-05-27T23:57:08.520,2121507,0.83,-0.4,-0.34,7.1,0.9,0.5,-5.0,24.2,30.5,101.12,37.46,0,0,0,0,0,NONE,21,149
2026-05-27T23:57:08.570,2121559,0.84,-0.39,-0.33,4.9,1.2,2.0,-5.1,24.1,32.4,101.118,37.47,0,0,0,0,0,NONE,34,198
2026-05-27T23:57:08.622,2121609,0.84,-0.4,-0.34,4.2,1.2,2.3,-4.7,24.3,31.1,101.118,37.46,0,0,0,0,0,NONE,27,150
2026-05-27T23:57:08.670,2121657,0.84,-0.37,-0.34,6.8,2.9,1.4,-4.7,24.1,31.8,101.115,37.46,0,0,0,0,0,NONE,36,223
2026-05-27T23:57:08.722,2121709,0.84,-0.4,-0.33,8.2,2.6,0.7,-5.1,24.0,30.6,101.116,37.46,0,0,0,0,0,NONE,38,183
2026-05-27T23:57:08.774,2121761,0.83,-0.4,-0.32,6.8,3.7,1.6,-5.4,24.1,30.8,101.119,37.46,0,0,0,0,0,NONE,42,276
