BVP_mean,BVP_std,BVP_var,BVP_fourier_mean,BVP_fourier_std,BVP_fourier_var,ACC_X_mean,ACC_X_std,ACC_X_var,ACC_X_fourier_mean,ACC_X_fourier_std,ACC_X_fourier_var,ACC_Y_mean,ACC_Y_std,ACC_Y_var,ACC_Y_fourier_mean,ACC_Y_fourier_std,ACC_Y_fourier_var,ACC_Z_mean,ACC_Z_std,ACC_Z_var,ACC_Z_fourier_mean,ACC_Z_fourier_std,ACC_Z_fourier_var,TEMP_mean,TEMP_std,TEMP_var,TEMP_fourier_mean,TEMP_fourier_std,TEMP_fourier_var,EDA_mean,EDA_std,EDA_var,EDA_fourier_mean,EDA_fourier_std,EDA_fourier_var,HR_mean,HR_std,HR_var,HR_fourier_mean,HR_fourier_std,HR_fourier_var,IBI_mean,IBI_std,IBI_var,IBI_fourier_mean,IBI_fourier_std,IBI_fourier_var,labels
0.0055795116291474,30.74744530060688,945.405392513812,1596.0923972278338,2172.9517940856995,4721719.499420259,0.6229882067600314,7.55768725031894,57.11863657363347,204.5104735780504,319.87138574854146,102317.7034206922,-44.2920769625097,2.6727356872498294,7.143516053898819,118.44727250503458,170.54642059693737,29086.08157842746,45.54777874693669,1.8082263241915364,3.269682439499235,89.28825568276098,116.4586779859453,13562.6236782341,34.20813633385121,0.1099484428453507,0.0120886600841173,1.0466764115878875,3.822044678603403,14.608025525240588,0.0985424350990265,0.0016755606443322,2.8075034728351047e-06,0.0682383853051566,0.1098289919555366,0.0120624074739693,66.27947643823323,1.4346209102748977,2.058137156197976,5.737680329198665,46.2712982309971,2141.0330399818754,0.8902367474014528,0.053009501586084,0.002810007258405,1.7440932643824127,4.246685610939305,18.03433867815893,N
0.0039600354292035,49.40665393455163,2441.017453008545,2503.9107437436564,3535.4549495487563,12499441.7002888,5.829832989516303,4.481165899362218,20.080847817606795,185.9380256780544,319.2588227394053,101926.195896951,-36.332036968451625,2.849729951936572,8.120960798964417,101.75870069658323,125.36637770789892,15716.728659599576,50.61216152314886,2.9463417786692765,8.680929876732037,124.91930773375898,181.4038463707799,32907.35547811351,34.107057183788555,0.0259288113096152,0.0006723032559296,0.5081669903677156,1.1662288223184825,1.3600896660063546,4.628488108597971,0.1194170739278448,0.0142604375454883,0.858011777711715,3.0763831976714693,9.464133578915336,55.69619473929726,2.917340731623673,8.510876944390551,7.631564693673258,111.42848155577056,12416.3065018247,1.1275683735930777,5.219030479925788e-14,2.7238279150394405e-27,2.7282616253201604e-15,7.095823488421692e-14,5.035071097883698e-27,N
-0.0038406424055221,45.05756871842782,2030.1844988158448,2168.046600494569,3302.9813026539155,10909685.485681357,7.597024502571625,0.3956715808153714,0.1565559998649349,23.65301391069462,25.2206902988842,636.0832191522317,-34.35001723857216,0.3193325829394287,0.1019732985267671,20.778285647575043,17.779756824075992,316.11975272327686,52.367376964955454,0.1189200710941546,0.0141419833090388,8.510347675348479,5.906181101868891,34.88297520807323,33.97660695551297,0.0945675655038566,0.0089430244453262,0.9418526422188096,3.1154572612813696,9.706073946870813,4.408471121997595,0.0228587816682058,0.0005225238993547,0.3894105440246188,0.6708215371778519,0.4500015347416561,67.92169480177516,19.28437085256968,371.8869591794391,102.23253602741518,417.6716276815272,174449.5885701363,0.9317802261569572,0.1586718405166815,0.0251767529729512,0.891412503091092,3.912376498601137,15.306689866806495,N
-0.0094739427281257,32.27667736937557,1041.783902006761,1565.336274715295,2357.966370567426,5560005.404726921,7.791565760797734,0.2564317483190957,0.065757241545988,16.389134657021895,14.383616548195532,206.88842500552437,-34.45751969736462,0.2445236606796491,0.0597918206321761,16.42104066587189,12.912085359363134,166.7219483274798,52.34407689787005,0.1453342466365361,0.0211220432454095,10.324433566662174,7.333847161120682,53.78531418267789,33.61343861641782,0.119283368737689,0.0142285220574114,1.0332917841641347,3.722905168656426,13.860022894808733,4.417683472676223,0.0178227757606874,0.0003176513358157,0.399274526791708,0.7048465950479471,0.4968087225506847,73.52378378570826,20.33753691812919,413.61540789626775,90.6726185866562,364.46888429008885,132837.56761566218,0.7420018447852286,0.1836668984181325,0.0337335295745366,1.7369623089533852,6.548660211852547,42.884950570300646,N
-0.011608984298084,47.97417447769476,2301.5214168162997,1641.9455045274162,3873.03895745251,15000430.765944824,-24.77639715768072,1.2914798448066152,1.6679201895417186,53.52347624870378,78.62395705216173,6181.726622540171,36.58983226090566,0.7401710712206845,0.5478532146719756,37.49522841154032,41.654235968783176,1735.0753741430703,44.98120398836532,0.6198017436600326,0.3841542014440167,32.94392364887266,29.643077308792552,878.712032335052,32.63721589972488,0.1815545374660176,0.0329620500744996,1.4094818656433798,5.401104784371707,29.171932891762943,0.2597444844442626,0.0086623344363035,7.503603788636991e-05,0.1123201548323357,0.2861960382831134,0.0819081723289493,91.66311736546928,1.0569442081518006,1.1171310591456367,4.025660252286982,47.09529050155622,2217.966387425972,0.6386155469834058,0.0326544533714384,0.0010663133249874,0.8916936066305787,2.6035235903799547,6.778335085664931,N
0.0037004463752308,16.77331850527774,281.3442136794926,487.5906958298431,1387.6287199518683,1925513.4644352607,-25.65755590707692,0.5065628239800054,0.2566058946385979,17.0519666166889,27.466077688286745,754.385423579003,23.886556291514207,0.4605950108682957,0.2121477640367654,18.77840436693745,31.98681780013029,1023.156512978732,53.99242549978042,0.4579798091682684,0.2097455056058036,20.87162382980901,33.565686360434135,1126.655300847034,33.8786455894227,0.0311248835261907,0.0009687583745189,0.5018482623862323,1.3000062637444267,1.6900162857747438,5.196828803201987,0.2091717056722731,0.043752802453848,1.814679800418047,6.947252433968976,48.26431638128786,62.37546953087623,15.55015130152329,241.8072055002665,104.23473537316757,459.8745137216412,211484.56837071595,1.2714858944813388,0.0521578757336419,0.002720444001046,1.6081351094914562,4.155702103633391,17.269859974142985,N
-0.0030937911183727,29.4619674628989,868.0075267849135,949.8816077961992,2402.4662912518334,5771844.280601339,-26.26578155827863,0.4305982634060864,0.1854148644483373,20.52945111329816,30.83509733687921,950.8032277748154,23.119468606955625,0.4626185149657854,0.2140158903891486,19.240915232120905,33.71553425070487,1136.737249810453,53.94037092883835,0.444696127373843,0.1977546457012932,19.708653153372808,33.491041324920296,1121.6498490275192,33.88520681486297,0.0308765090152229,0.0009533588089671,0.5328360880555016,1.3199949885709683,1.742386769852471,4.877101873540406,0.0371160596941023,0.0013776018872161,0.4970046247546321,1.3835521885415911,1.914216658418227,48.051956769388894,1.6120744191948837,2.598783933022521,8.701885221224611,81.32870673094068,6614.358538527356,1.240797854991618,0.05704180506147,0.0032537675246707,1.815202967443469,4.4799072495160885,20.069568964266804,N
0.0157536716468972,30.481660029909914,929.1315981790076,838.2126436631012,2538.008807847839,6441488.708713207,-26.540843447457917,0.3584538531264563,0.1284891648212031,19.336311629098997,21.15260872389945,447.43285582638725,22.71667267698033,0.4073279334026896,0.1659160453301059,17.487351507825114,24.493977539254647,599.9549356935111,54.06215676930592,0.4140961337849749,0.1714756080156639,18.6035848328099,30.901784088059653,954.9202598250567,33.99190860751856,0.0329607755640683,0.0010864127257848,0.5984686237344579,1.432097350828455,2.0509028222498777,4.830943284885333,0.1860474545664103,0.0346136553506405,1.5192757075032224,8.012276818209822,64.19657981162251,48.66715912699393,0.6441699337305095,0.4149549035223689,4.451971854856215,19.51719790289604,380.9210139808096,1.1961848279966256,0.0390098660468863,0.001521769648996,1.1751576189069513,3.0316445884808925,9.19086891086548,N
-0.0077970946226769,61.73519747028084,3811.2346066945697,3232.4022480925983,4342.372261282844,18856196.85555868,-41.41558219258656,13.219531241464605,174.75600624405868,305.9322953629483,628.710588597441,395277.0042145406,36.17235775001351,9.767255810287136,95.39928606358784,223.2357210498474,441.9002034897259,195275.7898442612,25.674938976109217,13.068775648473489,170.79289695013364,247.70007128977915,548.9983038328919,301399.1376113923,33.62060515287394,0.1338285487441014,0.0179100804589523,1.0195497648208962,3.893828025141008,15.16189668937352,4.419993396590415,0.0548531129226768,0.0030088639973079,0.9849167440554012,2.2908952267840217,5.248200940101814,57.78610229017831,12.84678083320479,165.03977777639795,66.0485834777415,342.2183389400048,117113.391506856,1.1641614018578397,0.0706889808453271,0.004996932012951,1.7581978221663237,4.404894905158983,19.40309912549557,N
-0.0176888276285196,41.30311193913173,1705.9470558564465,1933.527242809752,3062.433548114396,9378499.23661653,-27.628905380849925,15.390508165660046,236.86774159724857,124.40988309041369,484.3125551720496,234558.6510972795,42.3675046574703,0.9354074774946364,0.8749871489528785,50.99281275284138,52.94906248666005,2803.6032182162307,35.88951399321786,6.890171915753943,47.47446902864436,66.94991625889688,210.9152512507157,44485.24321015253,33.448124838949354,0.2375268639492939,0.0564190110975864,1.2574862286310236,5.491737016524644,30.159175458667,4.381915817422066,0.0410654172220001,0.0016863684916169,0.5244177169275666,1.6313246957013263,2.661220262805025,53.177643952484,5.155528917069009,26.579478414734748,36.71863835908224,218.8627387336956,47900.89840601391,1.1792859564120797,0.0715775868740865,0.0051233509427174,1.8354118513857969,5.150894722242644,26.53171643962712,N
0.033125311387125,41.84017023411311,1750.599845219565,1309.5387558844934,3427.159539139348,11745422.506713828,-2.2621298865215262,0.7331242231318208,0.5374711265426358,15.70234988750987,19.83689293061669,393.50232114075055,41.7089212544146,0.4135400812684073,0.1710153988154809,18.24201220250866,31.2490308713132,976.5019303962856,48.3422887535504,0.3080993667038201,0.094925219763295,15.67545332854805,21.9660034898092,482.5053093143099,33.794340460347364,0.097375776945901,0.0094820419358178,0.8385526714750314,2.9057390381053265,8.443319357569269,4.096223727721911,0.0744021160905573,0.0055356748787527,0.6806180296311597,2.453326338298915,6.018810122191164,48.88058371695853,2.0942376670888065,4.385831406253567,33.632707421585664,141.525873223266,20029.57279160796,1.2009570360249349,0.0559946087655536,0.0031353962108074,1.4926840360011704,4.428968879956996,19.61576533962752,N
0.0180682511215827,56.69551443915451,3214.381357520377,2265.3805018635862,4425.3185884277145,19583444.60908386,-21.258328016114334,2.860909537303141,8.184803380632076,104.44071057543272,151.76070663005586,23031.31207685388,35.25083370796047,2.522880916871555,6.364928120714659,78.09249694488811,137.46218703834515,18895.85286536499,47.47513974852412,2.3929738435780057,5.7263238160484935,78.77233291751352,129.9236054746073,16880.143259521414,33.12615403129307,0.0670066318233662,0.0044898887083121,0.8298445759971419,2.6047162204072105,6.784546588852424,0.2911423941359636,0.0092384049892529,8.534812674545292e-05,0.1245122790782868,0.3397559104555694,0.1154340786894929,90.90882771532928,2.6828837728149737,7.197865338433907,5.880459440274105,66.94403838150912,4481.504274824965,0.6389731369073952,0.0404698098238968,0.0016378055071823,0.9857794565687876,3.1527608841197967,9.939901192435842,N
-0.0258184650227104,39.11465267639904,1529.9560539953304,1112.266449835043,3244.4833166076496,10526671.991745371,-3.261337302003322,0.3886111831268539,0.1510186516512532,16.60715698450664,13.6497013526098,186.31434701543785,41.8137343726854,0.4309190093288328,0.1856911926009427,18.735118392596345,32.751128530031124,1072.6364199906188,48.27221971980803,0.330176008676921,0.1090161967058222,16.947863873659617,23.38197967065308,546.7169733188339,33.56579162353121,0.0383515403750672,0.0014708406491404,0.5875374307994432,1.5805197785724672,2.4980427704587607,3.882584382697965,0.0633103708454514,0.0040082030565885,0.5565985915426438,1.8534846353675165,3.4354052935434547,49.79513641195467,0.4652120025036882,0.2164222072734916,2.4071033506300026,13.534002572197616,183.1692256242517,1.1737296091972995,0.0430621095514581,0.0018543452790217,1.4612972299427192,3.306184359004437,10.930855015725578,N
0.0232649620651521,39.46813258730506,1557.7334899290918,1172.7034521183216,3256.096539770528,10602164.676305609,-3.965027773822923,0.1259072490814308,0.0158526353712534,8.522214829812038,6.276760782146137,39.39772591628778,41.92919891464462,0.4673747065122656,0.2184391162874264,18.414220565347183,36.38163496349083,1323.6233626166986,48.15669402074793,0.4136384254931739,0.1710967470444719,17.198919661006023,31.55830114094628,995.9263709026512,33.47562444752805,0.02383920279152,0.0005683075897352,0.5234083495661827,1.1614254044278485,1.348908970050391,3.971875556510534,0.3890968892519338,0.1513963892255316,4.052136971024721,18.675312349573524,348.76729135413336,49.72127179866457,0.5728438575282414,0.3281500851078361,2.4491892742385923,17.833581081118982,318.03661417684486,1.173473989596872,0.0482752986938242,0.0023305044639779,1.556713637527864,3.734620496638976,13.94739025391595,N
-0.0304309244536162,84.0216068580232,7059.630419004212,4070.166152017315,6141.273574262156,37715241.11393068,-4.636598663800554,9.335678360838656,87.15489045703116,156.1281765475707,395.692386218352,156572.4645111734,36.0875943550677,9.93528820780974,98.70995177224326,106.86218541914782,309.3241349247124,95681.42044692168,50.60281249671092,4.35577709789627,18.972794126557652,80.74420448555553,140.09345613017038,19626.176450495976,33.36601330748814,0.1389632622431693,0.0193107882532638,0.6297201305455878,3.137801051978588,9.845795441797936,6.353211078581358,0.5415408198002517,0.2932664595099286,4.530066245001581,21.773631925071296,474.09104720848393,52.09033605853168,3.811767291777329,14.529569886663474,7.80021573959892,56.53458252917697,3196.159021748322,1.135251411733928,0.0789695232701372,0.0062361856055127,1.4452890049893974,3.761421407164168,14.148291002272869,N
0.0066834514705226,98.93675764039764,9788.48201239478,5346.716520839122,6832.01083903089,46676372.10463557,-5.351521066533265,22.992015076415708,528.6327572741272,498.8331336034803,1208.428269337315,1460298.8821335782,-32.299502555993584,22.69364047092058,515.0013178234045,394.4757940631519,894.7622640142167,800599.5091038469,41.12963715359557,13.734535124762823,188.6374550933438,437.8710135133546,806.3506870756227,650201.4305473288,33.12438464415898,0.167987028141923,0.0282196416239552,0.904914024772835,4.066665477033876,16.537768102099164,5.6928316592196575,0.6480081624092037,0.4199145785489528,3.679442084639743,22.27533115332791,496.190377990421,60.43452574107825,6.083125417887535,37.0044148497494,31.11304046665915,142.36898087605474,20268.92671568644,0.8454505135422379,0.2550881825685082,0.0650699808861045,1.562850119856668,6.905215869620212,47.68200620605483,N
0.0017571088801568,8.75628179591022,76.67247088938873,355.02859871240315,680.8009372124632,463489.9161093682,-26.42837347193386,0.3589563007309195,0.1288496258344263,19.063441793160443,20.749102591454697,430.5252583507121,32.2174177067356,0.494871659542265,0.2448979594181154,17.859092452620786,32.05218713512456,1027.3427001450443,49.18838696778523,0.3450295338389383,0.119045379221115,17.74336731558486,21.48035325471017,461.4055759471378,29.054939699179684,0.0437532938540021,0.0019143507230746,0.556610631228891,1.3901604923863775,1.9325461945919364,0.440537329128392,0.0046444807517584,2.157120145345446e-05,0.0711999431072262,0.1717606861186502,0.0295017332959494,55.310116734097925,0.7052131402113568,0.4973255731267628,4.482013633193548,30.903804238661174,955.0451164214924,1.059907417374797,0.0867770550335701,0.0075302572802992,2.516506686385803,6.456106641039583,41.68131296047542,N
0.0069799387750736,7.866205090275039,61.87718252226894,325.772932887311,607.9831312019514,369643.4878261293,-26.674970973152345,0.1076591602402312,0.0115904947836317,7.265293173208459,5.673003444448029,32.1829680807192,31.48308375717476,0.5178671123325409,0.2681863460356445,21.31664045696194,35.57277619024167,1265.4224058810246,49.42212484160262,0.2041103352978303,0.0416610289753927,13.529321087707835,11.587414247893893,134.26816895229433,28.7649372582358,0.118081395794444,0.0139432160327641,1.0398192571019758,3.740323433501085,13.990019387197348,0.4502396095128996,0.0014121375516464,1.99413246477002e-06,0.0587849392841675,0.0835766427359194,0.0069850552110075,55.461902410491184,1.2189954709887505,1.4859499582910858,7.090753509359927,47.74033706412419,2279.13978299619,1.0772933612670832,0.0908599666925704,0.008255533547375,2.4177776272463998,6.494727189370503,42.18148126434848,N
-0.0015899706313255,8.16573349894362,66.67920357577,346.2062008755749,626.7681223934516,392838.2792486127,-26.936867168021127,0.3407924286549244,0.1161394794285217,18.120039283490957,18.90792625022361,357.5096750838953,31.041532929611027,0.4685005193188559,0.2194927366020377,16.108448104174645,37.69262840067467,1420.734235751347,49.43169960093118,0.1941886607054779,0.0377092359465872,12.97178995941952,10.867665747183697,118.10615879250976,28.372397366610805,0.0998692316061422,0.0099738634216012,0.9510540344616204,3.310880969698791,10.961932795513606,0.4482949404009059,0.0012827430941483,1.645429845585194e-06,0.0556471389865574,0.0751681919444904,0.0056502570802037,54.69541400965542,1.428573760807016,2.0408229900663017,4.628450685071478,55.273974097406,3055.2122125207097,1.085204613753228,0.0954062159124221,0.0091023460347277,2.276703903142913,7.007096166702845,49.09939668942171,N
-0.0011022505939604,8.019522598734595,64.31274271161487,349.44786919779875,610.2356341587714,372387.52919715794,-27.008597819817435,0.3885087021227147,0.1509390116250762,18.99723920724685,20.955423595145948,439.1297780519996,30.562503104340884,0.3834390148754948,0.14702547812869,18.96789891262198,25.684956966469368,659.7170143693834,49.83517679680529,0.3817918944821187,0.1457650506922453,20.388350334745223,24.434978238399395,597.068161511052,28.029781991593765,0.1056694919989246,0.0111660415393108,0.9909776515223124,3.58334187377666,12.84033898436122,0.4447541791237218,0.0019542163770447,3.818961648309743e-06,0.0584265143084861,0.0989625697347861,0.0097935902085124,53.95426966197024,1.393975619380848,1.943168027428219,3.9829050608279615,46.06718274906149,2122.1853264354286,1.0659449538361474,0.1761898392273721,0.0310428594469672,3.276718840220997,12.448258777649649,154.95914659533148,N
-0.0011138870969025,7.891952609768367,62.282915994829736,326.5687653796588,610.1203307960704,372246.8180507064,-27.564102539867463,0.2667703239834046,0.0711664057582106,14.974515513494486,15.842114086507928,250.97257872993288,30.195130238439717,0.4966170111228005,0.2466284557365438,19.061467674113853,37.079603822068655,1374.897019601569,49.801279505453074,0.3604532199804562,0.1299265237942791,20.533573643475464,23.52307625141536,553.3351163299012,27.729338904500743,0.0734700011115587,0.0053978410633324,0.8065533083779212,2.6005577781710567,6.762900757605983,0.4418703386858099,0.0012118551354721,1.468592869370164e-06,0.0582732603299605,0.0818569922474655,0.0067005671798016,52.69586173336988,0.928609650099294,0.8623158822575333,2.942607757347949,32.37774920963787,1048.3186438822058,1.0902469841391034,0.0884975059914499,0.0078318085667067,2.2880628890716914,6.480235713833828,41.99345490684743,N
0.0035323427291194,8.510563922581706,72.42969828034933,377.1325413610372,643.9588745311546,414683.03208743135,-27.795722443732867,0.242956345248633,0.0590277856965729,15.27770097299708,13.502391359729277,182.31457243129185,29.961486026063675,0.4343236639986133,0.1886370451091803,16.09155084861724,34.46973444948376,1188.1625930179275,49.71711909630606,0.33336788744544,0.1111341483798355,19.73760868108761,20.978692589801668,440.1055427773994,27.47420790583715,0.0713307187425404,0.0050880714363274,0.7579363311083117,2.345738132722115,5.502487387306634,0.4449783172239685,0.004261237528093,1.8158145270828493e-05,0.0654652492408044,0.1262923826974607,0.0159497659274018,53.04014109093313,1.452723221473307,2.1104047582077827,8.409529778149002,51.32919239818056,2634.685992249437,1.1047800382909103,0.1057790266248418,0.011189202473699,2.522774295456482,7.400057576005193,54.76085212819186,N
0.0010883029067174,41.706780905018086,1739.455573459181,2320.8959794167363,2826.328470104763,7988132.62092473,-23.41763201818345,6.5916061484964175,43.44927161689577,184.37693635798172,275.5299300118718,75916.74233234697,16.512160568459738,16.58329584799092,275.0057011819929,129.3775228205596,436.13183786238096,190210.97999721812,54.21944037459629,6.139893294003375,37.698289661747616,111.241345659019,219.45849079821613,48162.02918343072,27.26878982640136,0.046169327606872,0.0021316068116706,0.6576182013492802,1.685289685478299,2.8402013239795445,0.4522800111520726,0.0034909706286454,1.2186875930065527e-05,0.0768903172674024,0.1381808057203432,0.0190939350695232,53.368355862342405,2.679970646512826,7.1822426661703735,10.568099356056132,95.23255090027509,9069.238750973484,1.1334235239294206,0.1104254858182771,0.0121937879182025,2.5412280643786564,8.060677748090265,64.97452575855755,N
-0.0180794048024802,22.62722980735004,511.99152875462994,830.2651899837614,1802.0402930317143,3247349.2177098272,-15.736265438946075,0.2037018833086093,0.0414944572634742,12.577298979061318,10.255595810700605,105.1772454324598,-3.215637482332327,0.3782853775574759,0.1430998268738021,16.104162210559238,17.582352623799057,309.1391237876136,61.453724480632886,0.2318234271761675,0.0537421013877038,16.56377313768015,11.622961554788104,135.09323530408233,27.35955343828591,0.0889347231175566,0.0079093849759964,0.8520621917794722,2.747627319262771,7.54945588555912,0.4801901312745767,0.0107997353224532,0.000116634283035,0.1023886208469295,0.3202297457997008,0.102547090094941,52.15973635127625,1.5708916489211815,2.467700572650309,4.081491817310567,35.4182404281159,1254.4517550238238,1.1303483776098058,0.0644508140715866,0.0041539074344902,1.5855008818239522,4.731631470081921,22.3883363686696,N
0.0112430941000582,32.52581052903381,1057.9283505706069,1528.9047436601406,2407.6675215986625,5796862.894561047,-30.051782002057543,19.719030454268648,388.8401620563744,138.43879501256757,543.9144260614814,295842.9028777908,-0.5190412434268187,4.556446837258189,20.76120778076016,76.74459805947168,276.4742678364908,76438.02077572365,27.91257560938961,44.75745783485758,2003.2300318390544,232.87550530308624,1105.0271379617272,1221084.9756318862,27.74285846736456,0.1232634930326085,0.0151938887145999,1.0710777292740712,3.91790240236554,15.349959234461672,0.4870722301719504,0.0214166300668684,0.000458672043421,0.1067570396286135,0.4664413258482925,0.217567510459113,55.59093487982779,2.752866725300304,7.578275207265619,11.457659331205036,93.23303402446854,8692.398633407709,1.0535117191395926,0.0891149691648208,0.0079414777292469,1.8857690480536344,6.419596953054482,41.21122503966639,N
0.0164175261042873,20.776033435575258,431.643565316141,772.4177243038204,1649.9284447064006,2722263.872651282,-56.75557085383252,0.3874166954848522,0.1500916959404027,18.463949709326265,18.45010350881504,340.406319485989,1.2937257523311425,0.3867444003369263,0.1495712311919687,19.593528897038336,23.59956252640278,556.9393514375944,-31.454165275841262,0.3167964140798109,0.100359967973827,15.733437904067252,15.848177212846574,251.1647209697894,28.16331405213305,0.1511978276642865,0.0228607830903992,1.416434381615159,5.177631166275686,26.807864493989328,0.4920968732495965,0.0083021574515368,6.892581835010853e-05,0.0978828735054532,0.3042568880403367,0.0925722539199899,53.600520613016734,2.3302324211859564,5.429983136746164,4.918463627074572,56.703613136572464,3215.299742742073,1.130239165946788,0.0612501805943134,0.003751584622836,1.3192843233556222,4.069838273489519,16.563583572360145,N
-0.0188088614677815,23.123079056047352,534.6767850322157,803.997438057727,1861.3711298596108,3464702.483074844,-57.26554940476349,0.1878587188143759,0.0352908982345787,12.156297409873858,10.341985208849255,106.95665806005682,1.410159204182125,0.3833336718081732,0.1469447039419363,22.39580115637585,24.06213446537516,578.9863150297952,-30.809324055260124,0.2947686400352751,0.0868885511482455,16.3634603217163,17.543889080398205,307.78804406531543,28.86731733911872,0.2410534802205083,0.0581067803264189,1.893102015679701,7.565820580287465,57.24164105310135,0.521824745676732,0.009520379490856,9.06376256499128e-05,0.1023212259462611,0.3053802206901466,0.0932570791887626,53.77162738458661,1.6891007052701492,2.853061192544115,3.00861150255246,37.43487031823776,1401.3695157432787,1.105060353937708,0.0747116150523131,0.005581825423725,1.5562177982552785,4.514902655464092,20.384345988316703,N
-0.0030043015827925,26.496895476692163,702.0854699027497,982.8241816106928,2105.3264025634685,4432399.261330836,-57.33356949287431,0.0566272261617068,0.0032066427427691,4.075250315326042,2.8126501599906537,7.911000922495449,1.8206541050868876,0.2653318779469598,0.0704010054548603,16.81141896104103,15.56033012937393,242.1238737351021,-30.652354135770143,0.0761497976877388,0.0057987916878835,5.27422649751882,3.9969459877959546,15.975577229358178,30.282938568796474,0.1689534217482455,0.0285452587204405,1.3246801255793728,5.240911720496226,27.46715566203471,0.5760994153128458,0.0061584059240015,3.7925963524777786e-05,0.0887633080185358,0.1984932944341768,0.0393995879353328,53.77097762054032,0.9878356876409596,0.9758193457770878,5.289419876776541,53.98393162038468,2914.264873194369,1.1167779517317924,0.0735541337501039,0.0054102105917281,1.8078768689536069,5.205514500520727,27.097381215131552,N
0.0002204763448574,25.97972584419818,674.946154939699,888.032309072759,2097.872020166516,4401067.012997539,-57.70934489705174,0.382913301571363,0.1466225965202816,18.27141879616513,18.316855779587875,335.5072056502218,1.748878894938786,0.3166868579852759,0.1002905660205863,19.850288232002548,19.01943032262581,361.73872979721807,-29.99047086546312,0.4483937902710287,0.2010569911536192,11.565754102818538,14.339207232938518,205.6128640691563,30.79497125865016,0.1256153834617756,0.0157792245622489,1.1379247182054577,4.19007380233226,17.556718468991125,0.588313252291453,0.0030117870164492,9.070861032452214e-06,0.079173067988043,0.1408576030677399,0.0198408643419889,54.50280123574412,1.3973145909844296,1.9524880661779835,5.826231181379645,53.11073466196065,2820.750136333188,1.104055242757472,0.0655865060488953,0.0043015897757017,1.8639669615054293,4.917850403102446,24.18525258729489,N
-0.0096396948956445,60.32895053741402,3639.582272945748,2475.2891710523254,4675.224563611196,21857724.72019349,47.99940007163286,0.8132561366468678,0.661385543793789,32.22149509356559,47.64994190595799,2270.516963641171,-25.70144577520436,1.126876331243316,1.269850265916396,34.1169823499433,57.25350998224204,3277.964405286689,-31.973544444242297,1.7751882506712733,3.151293325321335,47.59401012969967,107.64438854645609,11587.314385540403,33.809688301100294,0.0352360792866433,0.0012415812834946,0.5647142140051666,1.2508148950581313,1.5645379016992838,0.2869296886709456,0.0052190581529563,2.723856800394033e-05,0.1021878137528099,0.2296153068170912,0.0527231891247069,90.0727791885744,0.8709843341247763,0.7586137102907798,7.3976691120007,53.38075575738056,2849.505085229117,0.652065248693743,0.0382829074976367,0.0014655810064726,1.1107826324055443,3.121408532836817,9.74319122886649,N
0.0207115585510607,42.30353681343195,1789.5892269253918,1844.4259706732705,3218.421674686538,10358238.0760921,-53.24197931051791,19.61946987102775,384.9235980201656,227.2158039880029,1293.006472384926,1671865.7376293102,0.7206338146179107,5.253098887588925,27.595047922787995,93.42214767879328,402.0423149010549,161638.02297099898,-25.076988683273463,18.546916226785537,343.9881015234007,247.37071882005097,1171.0837927390592,1371437.2496160995,31.20613629800018,0.1005696787799841,0.0101142602899091,0.8313815560550178,2.6835671749187733,7.201532782301527,0.6015202174553942,0.0048679734783765,2.369716578617712e-05,0.0938617503536254,0.2132873830373866,0.0454915077629368,54.60995102392159,1.3989371570951168,1.957025169501368,9.584437204220798,46.79242975124937,2189.531482025607,1.0874430939965896,0.0608068436944445,0.0036974722400806,1.319746681821715,4.434914802251864,19.66846930323269,N
-0.0757066753566277,56.794333394833615,3225.596305763513,2198.5163737468542,4468.536665358875,19967819.92965662,-45.62980641965553,0.2365474451693769,0.0559546938161593,16.456193853914588,11.666171447251974,136.09955623667724,-10.873890964450066,0.0088318921352784,7.800231868919349e-05,0.6566838750496252,0.409634145005905,0.1678001327547188,-43.56145682337698,0.1604977378815206,0.0257595238650852,11.532849100279169,7.845129753551577,61.54606085006023,31.581817688211537,0.0191508647475246,0.0003667556205779,0.5721962098350956,1.2193786926826833,1.4868843961685296,0.5402419966945219,0.0019031255125194,3.621886716402241e-06,0.0790046788046108,0.1063795222652998,0.0113166027573934,52.94003996338111,4.097161704759655,16.78673403494904,7.533656276550225,88.72364746429174,7871.885619367924,1.1131540455476137,0.0966164668240132,0.0093347416615556,1.6935031215740466,6.5702337117729845,43.16797102731821,N
0.0413993307569606,57.72432214090503,3332.097366626979,2213.4651420817254,4552.032410724712,20720999.068288226,-44.73581076571212,0.446844871456414,0.1996703391468992,11.370376989063177,14.21791073445456,202.14898565291816,-10.873183016270271,0.0216757744883004,0.0004698391996676,1.5053395219682515,1.1494827130622756,1.32131050762901,-44.32323972084235,0.3857093993540451,0.1487717407500582,10.698205984612162,15.024267336923826,225.72860901135613,31.629970713546275,0.020928658432823,0.0004380087437977,0.555448003570201,1.2017062516309278,1.4440979152088549,0.5398641048093985,0.0022649663399202,5.130072520971507e-06,0.0831894933117242,0.1170482311862061,0.0137002884238195,53.79974070413408,1.5519298953046847,2.40848639994041,8.478727929435118,81.39059196371905,6624.428460204606,1.093701188819255,0.0746729243903229,0.0055760456370028,1.7133800978329623,5.787133671892132,33.49091613634771,N
-0.043891674442522,60.69846336862332,3684.3034553121074,2145.719711588888,4870.772792913451,23724427.6001859,-44.66444100461052,0.248703452323141,0.0618534071974489,17.27264016242593,12.67980544800164,160.7774661991721,-10.874084041226334,6.425561663032191e-13,4.128784268542901e-25,5.798120177642699e-13,6.8179707184559305e-12,4.648472471772249e-23,-44.48533977470245,0.022866749082278,0.0005228882135918,1.667747851313525,1.1064908006259766,1.2243218918699148,31.695788180026103,0.024178696796339,0.0005846093787692,0.5638474669160195,1.2998015815538837,1.6894841514099777,0.5449852096504985,0.0034903267078738,1.2182380527697436e-05,0.0900880999030923,0.1267754489694572,0.0160720144614074,53.788933779755126,1.1964466471897093,1.4314845795714966,4.194362017540383,24.926300991764933,621.3204811320614,1.086557644847279,0.0496182049780118,0.00246196626524,1.1870647314111489,3.1008978782229617,9.615567651167666,N
-0.0020155298287283,71.9306609987228,5174.019991713181,2799.3775515522207,5652.130980321407,31946584.618709028,-44.38166143719364,0.3042599602827939,0.0925741234312873,5.41585132208426,13.63236442426833,185.8413597960568,-10.88734195195,0.0765156418257591,0.0058546434440078,5.48445361371643,3.747794207121877,14.0459614189363,-44.95854660721787,0.4367571210143579,0.1907567827567504,22.48848357198342,19.390312861223045,375.9842328561119,31.86727993634589,0.0339025156232369,0.0011493805655838,0.6667497706246256,1.6231226513103103,2.634527141196612,0.545287104738476,0.006083071712016,3.700376145352943e-05,0.0873365117721199,0.1556589275950303,0.0242297017400349,55.749019231622896,2.71982600195965,7.397453480935813,17.177089414746106,67.85412817766394,4604.182710750847,1.067219818402155,0.0868006571683183,0.0075343540848519,2.035863877151824,6.791240923578614,46.120953282088905,N
-0.0096837950113635,80.30905748826588,6449.544714653594,3294.458534090418,6223.918308422835,38737159.10992097,-41.55459717433002,5.696724448971795,32.45266944751301,42.00304141032188,177.815212030102,31618.249629310136,-9.003234437620991,3.642453695331262,13.267468922632368,29.82931705512604,126.8909549523866,16101.314448728604,-47.0251186707817,4.447622388621149,19.781344911764094,43.00736698829423,133.9459269148691,17941.511337083455,31.95962807401993,0.0326535648798553,0.0010662552993629,0.6092376346153212,1.4961455213340908,2.2384514210080586,0.5612631983452092,0.0119096140823781,0.0001418389075911,0.1542482870278212,0.4914771428311368,0.2415497819254576,54.42333239009732,2.48373728771104,6.168950914366192,3.3828248953207165,44.91778866275266,2017.607738351712,1.0794620834483974,0.0777650735527716,0.0060474066646679,1.6935382941293111,4.68071435848294,21.909086905708364,N
-0.007361474572073,44.23008190701968,1956.3001455016692,1526.5593273124623,3565.3370758825863,12711628.464662991,-32.666587490118395,0.4099083074458975,0.1680248205131604,16.453630349167582,22.359438303459854,499.9444812462277,-3.519928311587345,0.402785240455015,0.1622359499284043,19.73250889564164,15.654254810788396,245.05569368109164,-54.49841508519752,0.3011610687276438,0.0906979893171766,10.692311241769138,11.830489861724685,139.9604903683705,32.1429374164406,0.0725415722903953,0.0052622797103626,0.7439854023562206,2.272558759689736,5.164523316242551,0.5797806429906721,0.0023489271907956,5.517458947659184e-06,0.0824219663349124,0.1193702103617154,0.0142492471218002,53.897839866067,1.2730685647011457,1.6207035704302353,6.157758278942259,37.959744768655135,1440.942222901441,1.1380812531377271,0.0455309074930241,0.0020730635371383,1.4117245443473176,3.161620795306452,9.9958460533142,N
0.0020116996403849,40.64765984236114,1652.2322506602989,1239.948471233181,3341.640350043346,11166560.229037818,-33.209394676865244,0.3593140066744597,0.1291065553924537,21.48814018289788,19.629996446306315,385.3367604819985,-3.9231331455904033,0.1179295295976915,0.0139073739511328,8.136030728778875,5.83147599004812,34.0061122225077,-54.35471670755216,0.0846543520006289,0.0071663593126463,6.11124792781772,4.151146271349291,17.232015366137123,32.28346311511044,0.0196970917146835,0.0003879754220166,0.4952492609671053,1.117070296250171,1.247846046764445,0.5792738003741772,0.0019631384485159,3.853912568041788e-06,0.0830269869915196,0.1112324315604382,0.0123726538308475,52.94453254531287,0.8027981927938201,0.6444849383530237,4.56001248086984,39.365876009112576,1549.672193964825,1.1348399306058683,0.0425028077167153,0.001806488663804,1.3576819582463655,3.3651835679850377,11.32446044623651,N
0.0077939459389961,37.53194197258495,1408.6466682334835,1260.076981288967,3040.2800471765254,9243302.765259696,-33.57147515513118,0.1542946034980447,0.0238068246686188,8.623243586074329,9.10254134022215,82.85625885045324,-3.919780353520964,0.1567896151748661,0.0245829834266825,7.416493418252904,10.694261633492122,114.3672318855816,-54.2751891731811,0.1924184434931222,0.0370248573963158,13.725718268103083,9.631085488629124,92.75780768928252,32.34465270155458,0.0234057322008831,0.0005478282998594,0.587541445110861,1.2663144627307663,1.6035523185211096,0.5624132802472345,0.0089294395685831,7.97348910089776e-05,0.1110855465591662,0.3003337938637196,0.0902003877365752,52.58046546061975,1.0291490355892274,1.0591477374542368,4.547592493755114,35.84494869179238,1284.8603467172286,1.1352527246428394,0.0392397756334641,0.0015397599917646,1.2078353060079372,3.0592914240299547,9.359264017143229,N
-0.0188741454212171,36.48030459540714,1330.8126233736832,1197.5142847874974,2966.238139043583,8798568.69751674,-33.60628529831054,0.0488908502223264,0.0023903152354619,3.466971904600477,2.511481733451005,6.307540497458064,-3.953362786018962,0.0256449922448986,0.0006576656272409,1.9279901911238004,1.1471901994197946,1.3160453536448282,-54.23801228742444,0.2212521693746603,0.0489525224529933,15.83251170002987,11.062827188679924,122.38614540659576,32.377067942151854,0.0171310781306205,0.0002934738379174,0.5313876670953878,1.1252308072431274,1.2661443695690202,0.5549691108758973,0.0017639933009102,3.1116723656563987e-06,0.0804373234012918,0.1037097008112209,0.0107557020423529,53.343711153925,0.7444423752881245,0.5541944501246249,4.553339135747924,34.76095163079447,1208.323758278433,1.1320481074082656,0.0416886949490922,0.0017379472865584,1.300904740911552,3.267974618408461,10.67965810656193,N
0.0166122649964777,47.80506755939808,2285.324484358615,2068.214253063604,3646.1429568121303,13294358.461510709,-29.90612846741783,4.782034082334588,22.86784996460961,97.12910724538736,148.22445396072456,21970.48875195496,-1.8230116689421367,3.0262050914974123,9.15791725580486,34.26001164976784,86.62319991912096,7503.578764227999,-39.1099809253931,40.141230928484525,1611.3184204539225,301.3287872621063,1393.5759831217274,1942054.0207336887,32.40361600039487,0.0180033811769092,0.000324121733801,0.5234909036628994,1.1201381229814236,1.2547094145563469,0.5596282136765257,0.0135676380986915,0.000184080803577,0.1321112097168964,0.4671132770199129,0.2181948135682819,54.93568091534133,2.5804883624467347,6.65892018872303,17.578389565576988,107.4536194162126,11546.280325644262,1.1222786171989676,0.0839045196695011,0.0070399684209697,1.7523209122535417,6.319889571356339,39.94100419413861,N
-0.0104872497516664,47.53937641881843,2259.9923102901093,1755.641268459024,3780.849691987831,14294824.393404478,56.34675426328935,0.0176541512401291,0.0003116690560093,1.2785568729628305,0.8636776384556465,0.7459390631683224,-17.753602735246666,0.1327472794357866,0.0176218401976028,9.029914577209167,6.301176366715224,39.70482360445048,-20.18413319489536,0.3922322834546493,0.1538461641840483,19.895302909083405,16.753868199442994,280.69209964430723,31.293955986760697,0.0497957104194316,0.0024796127761758,0.6985381185786557,1.8902665333750437,3.573107567197704,0.5123916159701917,0.0063232404752904,3.9983370108352006e-05,0.0938873403888276,0.1985174578298155,0.0394091810632125,51.27494480581312,1.2449172870696217,1.5498190516447867,5.99752015076594,33.30317627679419,1109.1015501232273,1.204301627394205,0.0333490320877448,0.0011121579411894,0.7000637272503073,2.0760809661931305,4.310112178189403,N
-0.0298766308117577,43.12936941696047,1860.1425063046447,1591.4477015176242,3430.728615542088,11769898.833499333,54.374217382734045,0.0388507331879414,0.0015093794692406,2.8195260827866,1.898828024641907,3.605547867165486,-12.851061512689382,0.0072118279757414,5.201046275168741e-05,0.5306971725430383,0.3425136975697596,0.1173156330229087,-27.29403187232216,0.3460129332507041,0.1197249499767562,23.077781550736628,18.842268768284924,355.0310923362855,31.400235902574217,0.0166391201960414,0.0002768603208983,0.5365187246797487,1.1029961433420508,1.2166004922274376,0.3924760326063889,0.0095637713147396,9.1465721760636e-05,0.1066746109983391,0.3146591073400436,0.099010353832033,49.51078879116288,1.9502414941459052,3.8034418854884535,4.045508319512547,46.31524097388188,2145.1015464687466,1.1717657608671117,0.1293120923088023,0.0167216172172802,2.444378978917658,8.86477931160344,78.58431224343236,N
0.0187833077881048,44.29160865779649,1961.7465974953927,1330.4428614347132,3648.806870157474,13313791.57570838,54.37569763802163,0.0471888782703516,0.002226790232414,3.4364345286993387,2.302398016568109,5.301036626696761,-12.851190230540269,2.136786433979392e-12,4.565856264438366e-24,4.6013106396059274e-14,1.2815013527434937e-12,1.6422457170834034e-24,-27.231545109622573,0.3570206891431468,0.1274637724762474,24.121791820972625,19.908973025506068,396.3672069303282,31.38594291191482,0.015162465604727,0.0002299003632145,0.5292376123642134,1.1424096322423445,1.3050997678400882,0.379186170178068,0.0061128863525369,3.73673795590324e-05,0.1151687328553943,0.322917517835515,0.1042757233250501,49.07016736243484,0.7226065104816765,0.5221601689905052,4.0691439033656485,38.15711806587702,1455.9656590932786,1.1975531348838724,0.0413698049918612,0.0017114607650646,1.225735195190978,3.188935111301512,10.169307144091588,N
-0.0406972990154179,43.71893258813928,1911.3450666462668,1409.4614311453586,3565.0620141666577,12709667.164854024,54.38058890692166,0.0662288710566723,0.0043862633614413,4.715154053709887,3.253209584288728,10.58337259930804,-12.850997153763956,0.0088319189586613,7.800279249236159e-05,0.6567257340639444,0.4097656756694061,0.1679079089568048,-27.16960024151019,0.359386025469242,0.1291583153025786,23.363409316359554,18.75010948277396,351.56660561600984,31.37535907888304,0.0165858730886444,0.0002750911861126,0.5393950328641924,1.200672162545683,1.441613641912128,0.3825536720704465,0.0064553850593857,4.167199626494021e-05,0.096402042957966,0.2211475485480858,0.0489062382288279,50.49373281300424,1.3701485047486648,1.877306925065002,12.675572906747153,75.01978970101389,5627.968846784351,1.1515822807184548,0.1129549839455675,0.0127588283981434,1.9682996817132048,7.810152255259764,60.99847825033918,N
0.2258123431363546,43.424755575302974,1885.709396774807,644.6168105984812,1521.7433764844773,2315702.9038743777,54.39787961158044,0.1047882449032599,0.0109805762699055,3.283589112788021,2.2476645291158457,5.051995835445557,-12.85050373532127,0.0166482004677141,0.0002771625788131,0.5311125724389681,0.3418404457318824,0.116854890338172,-26.93147612928724,0.2939435728422401,0.0864028240152613,8.914898748507495,6.738492338201938,45.40727899200623,31.36766839786461,0.0163410602824007,0.000267030251153,0.1961268378354512,0.425426423917745,0.1809876421674409,0.3727022252390085,0.0018128068095563,3.286268528773846e-06,0.0336043680313912,0.0445652738525393,0.0019860636335518,51.29616770511202,1.768696550633726,3.1282874882236404,3.911643441577543,8.43724086969443,71.187033493242,1.156486472130027,0.0541752094470632,0.0029349533186331,0.6016206197723977,1.3388632483391014,1.7925547977531306,N
0.023073028729935,84.10808345185058,7074.1697019434605,3330.131941375509,6580.544238180883,43303562.47065562,-8.704656926936606,7.349454572015044,54.014482506112834,184.22403794056456,340.75606397653974,116114.69513678364,38.83609028556454,3.444696139986233,11.865931496836051,106.37763443570736,136.44525268050114,18617.306979045803,47.43983282935032,4.561586045556221,20.808067251013245,184.881951590864,336.5291689069129,113251.88152517752,33.70866488972741,0.0752500431563733,0.005662568995036,0.8042867496305355,2.6628163188007106,7.090590747671368,0.2582865461346479,0.0061928719273837,3.835166270897796e-05,0.1058966098036004,0.1677727442892643,0.0281476937263508,79.91219180948762,1.6676239852565922,2.780969756203078,11.780716226846437,87.02479111239506,7573.314268155996,0.72968676262668,0.0564537966225947,0.0031870311531052,1.2172262162995633,4.73280347784712,22.39942875992179,N
-0.0339005558219757,51.65091045519777,2667.8165508508578,1954.5183097519405,4085.666185512508,16692668.179440329,-21.35679929986006,24.590439842700185,604.6897316574567,293.3020091403052,778.7733721398861,606487.9651541294,-12.407824997707388,19.200845610856454,368.67247217194574,178.028268449461,557.7303179315769,311063.10754005786,45.974488893011056,16.872016201543005,284.6649307051296,205.30449319406355,537.7835387078364,289211.134505123,35.205833219465866,0.1411313966944734,0.0199180711329328,0.9951340153398356,3.4824937476891944,12.12776270269433,0.0912228431864552,0.0108160145241616,0.0001169861701868,0.2329313260149123,0.6410183672844572,0.4109045471960312,79.20533655965913,1.0639623941732697,1.1320159762149162,8.361801999910936,51.2986808104005,2631.554652887352,0.7422273657122704,0.0324044970231184,0.0010500514273212,1.0599334793370203,2.5225021923692363,6.363017310507604,N
0.0066934901041226,52.96561830079732,2805.356721985756,1646.0548731459603,4342.916076399147,18860920.046646155,-43.45535144837039,5.032658024298442,25.327646789535496,73.50604683028553,180.7534866873248,32671.822949624915,-2.83819580135347,1.7847661356799118,3.1853901590698053,25.80642729151899,59.2296593025568,3508.152541096953,46.057552257532514,4.2900839266833,18.4048200979864,48.8658607685249,147.96540961910185,21893.7624437486,34.754830649967225,0.1286327961890729,0.0165463962554195,1.1495197948688465,4.125956170941147,17.023514324527333,0.076060393556961,0.0047632840453353,2.2688874896546063e-05,0.0729415122819576,0.1473280503934036,0.0217055544327212,78.58687943314472,1.7742615940712243,3.148004204196163,8.641154228671276,39.35095921362293,1548.4979910322154,0.7452185652492228,0.0283927113421807,0.0008061460573603,0.83408758469693,1.7238794255248664,2.971760273747943,N
0.0048129892298255,76.46851067425808,5847.433124739122,3245.7196088955284,5867.389757976869,34426262.57201186,-30.718356350283997,6.088330228752474,37.06776497434115,140.43670051863327,226.5668143235191,51332.52135270798,33.374495760689165,3.2703123643581047,10.694942960473496,93.37589562711597,130.45058052933732,17017.35396044112,43.01238960947241,7.188464786364903,51.67402598480821,140.10068066938837,269.4877075418256,72623.6245161485,33.55470934380485,0.2735507971778328,0.0748300386366278,1.744369276722542,6.884849200873348,47.40114851876638,0.2684187143592381,0.0175585798530078,0.0003083037264544,0.1434988737951308,0.4375192506793546,0.1914230947150239,79.42040257143908,1.0649866952865628,1.134196661137394,5.863215352500299,58.70480678102401,3446.2543391973627,0.7441436452798136,0.0558900031957501,0.0031236924572209,1.379356013142447,4.570850582887857,20.892675051086265,N
-0.0187088792452874,48.10906582130139,2314.482214198309,1109.5681472033157,4070.002042711824,16564916.62767842,-37.04392834282213,0.4032594776308604,0.1626182062991144,19.22237836490661,19.70871561224933,388.4334710845204,-0.4795481656499295,0.3422642477357149,0.1171448152780948,22.69414106956459,16.48308013020517,271.69193057876447,52.17101455643093,0.2874701411133589,0.0826390820317344,17.748162508719876,13.93227392945802,194.10825684545563,34.556462124030425,0.034750803163496,0.001207618320508,0.4921082457600764,1.1359477711448174,1.2903773387688782,0.4779862626856819,0.318010130490632,0.1011304430946687,2.325083239984635,9.666249715561005,93.4363835635832,78.65518335807393,0.894112879242846,0.799437840827932,9.26716652582676,46.62621145271392,2174.0035944331903,0.7482592165084937,0.0223015878680943,0.0004973608214383,0.8173337267322573,1.7057373699892866,2.9095399753779687,N
0.0236198973768061,50.37415869705307,2537.5558644358875,1420.8116078903568,4182.410389121815,17492556.66303409,-37.237943570910815,0.3999652416224903,0.159972194506137,18.36656105414497,17.460016969334124,304.85219256943554,-0.2274385047867294,0.325342327363489,0.1058476299742916,20.774167285153123,15.882319424934677,252.2480703156573,52.03114657644681,0.3800266185465578,0.1444202308039309,23.243791316435114,19.00455583512916,361.17314249054175,34.41069559777885,0.0752441468199447,0.0056616816306613,0.6400917840608525,1.7525539202910034,3.071445243527365,1.30638559745308,0.239640830620446,0.0574277277004573,2.540167472750223,9.837934363466628,96.78495253987754,78.7230866741596,1.1011232285897148,1.2124723645398372,4.092710472690014,27.96509099847281,782.0463145528649,0.7450883080245679,0.0312384864189846,0.000975843033749,1.0533443725509417,2.293347147719233,5.259441139951944,N
0.0201653274397555,53.14778096637784,2824.6866216500757,1451.1945786015349,4428.663731409958,19613062.44590597,-37.56618284311408,0.751922053310123,0.5653867742541113,15.032540168931494,20.121016799301717,404.8553170377817,-0.5997000789875958,0.4761126359987754,0.2266832421577024,9.161919262358603,12.419487378132638,154.2436667355959,51.77476771602945,0.4512599326850934,0.203635526846955,12.556358118474998,12.414330969461105,154.1156134193211,34.26972283322019,0.0694962750632817,0.0048297322476713,0.5608382401003474,1.4928501323656107,2.2286015177040213,1.861982477430431,0.1723859991312286,0.0297169326964719,2.6742982055464104,12.331075333260038,152.05541887453415,78.32764314798057,0.6921425711843066,0.4790613388456228,3.959705397010133,23.149626054997835,535.9051864862347,0.7508125007922056,0.0267392181572061,0.0007149857876586,0.8520970650290806,2.0961264234314,4.393745983007314,N
-0.0025090188152812,51.81385804784166,2684.675885801886,1429.081000530066,4312.798530577941,18600231.16535525,-38.03719446636862,0.4980884582841001,0.2480921122758317,11.231713571816725,14.738851301151934,217.23373767746807,-0.1524095862847793,0.2897511803770116,0.0839557465298715,14.966374818442173,12.22765090215409,149.51544658494973,51.43181258042655,0.1777829795783594,0.0316067878277593,11.607642027189678,9.051230598090214,81.92477533980453,34.20262431286648,0.0604202000648089,0.0036506005758715,0.5251581191265026,1.4862745814637297,2.209012131505184,2.041149004467815,0.2827690842734634,0.079958355020853,3.5628824177410303,13.5466503693913,183.51173623052944,78.05419600830311,0.8799147429704213,0.7742499548967026,3.178518942816097,31.077675873808342,965.8219377174892,0.7512270406595164,0.030801584192551,0.0009487375887708,0.8885506929193105,2.4400272269526004,5.953732868269998,N
-0.0144844123829594,47.360994446818566,2243.063794991579,1332.568919059281,3933.343473696336,15471190.882069562,-37.548358376413255,0.1787292474719793,0.0319441439019,11.703616908190934,8.674124636962809,75.24043821756517,-0.0021128882452375,0.0413753473017643,0.0017119193643416,2.9573848944536354,2.0859070041238605,4.35100802985298,51.59620789335541,0.3184228158442475,0.1013930896501795,14.928418563906945,11.861612641814158,140.69785446444544,34.1053313203922,0.0257908088452048,0.0006651658208898,0.4748339403455423,1.0764651773038865,1.1587772779478878,2.638997060099342,0.1642797647318208,0.0269878411003424,2.8627626992263147,12.178514217972015,148.31620855734656,77.60709486466307,0.5614078977004673,0.3151788276004584,5.783265918979523,28.486143125161306,811.4603501471747,0.756874010230452,0.0330889408315118,0.0010948780053512,1.0942934101656272,2.6237471608632097,6.884049164137754,N
-0.021012469736818,44.61544932522872,1990.538318492052,1379.2694814182755,3660.992039413145,13402862.712646414,-37.51449956992118,0.5319348682380294,0.2829547040474096,34.62707566525997,29.64693903922031,878.9409943952453,0.6379401629063948,0.4532174313528896,0.2054060400821112,17.03652485031466,17.623876142413092,310.6010102831173,51.60472279951348,0.3791643708470709,0.143765620119855,20.37374954415824,18.72838926971996,350.7525646381617,34.06895371961833,0.0491625684750991,0.0024169581390688,0.5125567477927081,1.237939419553624,1.5324940064847636,2.860673818307773,0.1751703378799329,0.0306846472729698,3.3043331409781302,13.228727825745516,174.99923988765372,78.56059119456943,1.7033728700101165,2.9014791342865016,2.5692051377251146,19.45767344309524,378.6010558181338,0.7468501612900685,0.0288277654999089,0.0008310400637177,0.7827698569464586,1.798094556180676,3.2331440329665826,N
-0.0014398558913402,46.77726859537969,2188.112857244295,1279.7404357617304,3897.0102727152503,15186689.065648193,-35.90686377162677,1.945556781065996,3.78519118835188,23.996738836766383,50.93372962427844,2594.2448134390997,1.0677719490426734,0.8532187103836503,0.7279821677487393,12.92022308090146,19.541067394941813,381.85331493365794,52.719371138937504,1.2971328207814106,1.682553554748339,25.814735030115138,35.37268624011941,1251.2269318419328,33.9564081422833,0.1525728712392215,0.02327848103818,1.0700022079053817,4.072223392260427,16.583003356473018,3.55473888712814,0.395883698885664,0.1567239030433951,4.110866343129097,15.75154993307058,248.11132529401576,77.44210305458918,0.9631646248235024,0.927686094511398,7.088160903408978,41.644621207113104,1734.2744754839343,0.7578600042661388,0.0292992527022487,0.0008584462089102,0.9139425737778611,2.161335799693444,4.671372439036498,N
0.0100769105081146,26.90870789278001,724.0785604589614,1451.0791238407662,1860.59455562034,3461812.1004040497,13.993317997900249,5.176435626413987,26.79548579440797,206.3675704222673,352.2418763744474,124074.33947179146,-42.02999571853113,5.1999273616415165,27.039244566348103,186.349243369168,394.5783219502307,155692.05215305992,45.06951572408276,2.3749823186081858,5.6405410137015135,122.00180047816232,155.67506822433023,24234.726866649875,34.15627655988893,0.1509095058984478,0.0227736789705136,1.2307315680609567,4.795896341817608,23.000621721459517,0.0969263414815366,0.0028515837260972,8.131529746942748e-06,0.094111703925555,0.1979391208792849,0.0391798955744641,65.03428073372723,1.4599202589540732,2.131367162504528,7.320771824450554,63.91599684224486,4085.254652337855,0.8935910997305607,0.0567425373531998,0.0032197155452792,1.7519360525404917,4.363269743866201,19.03812285773823,N
0.0340942126060316,74.84793853988259,5602.213903670042,3118.1448013544527,5775.170227100427,33352591.1519872,-44.612224616567765,4.534965259562352,20.56590990543743,124.5942869786087,244.20316440958908,59635.1855076568,37.6116125077932,1.220187034359986,1.4888563988202177,52.26239402252442,58.23958932618857,3391.849764883098,24.210929902917087,9.121550171533856,83.2026775318093,120.23666317346466,445.73634761028063,198680.8915809529,34.237265662091595,0.0736516279470095,0.0054245622992447,0.6790263093710379,1.6001180735861609,2.5603778494170863,0.2977907930067093,0.0024820364754887,6.160505065656415e-06,0.0841176035311637,0.1240519983880609,0.0153888983040714,79.7574669900793,3.0750101166040986,9.455687217217552,10.96688118632162,109.57973219044004,12007.717706928564,0.7450001544106086,0.0610301702669158,0.0037246816828087,1.1173978981931127,4.346416147234869,18.891333324944004,N
0.0206338094072252,41.42810913123536,1716.2882261895468,1021.571730765582,3486.1047068900502,12152926.027400965,-54.43670476121463,0.164285367257415,0.0269896818949037,11.495027688479944,8.579302560349149,73.60443242201345,0.0258814703776415,0.1102233918957619,0.0121491961210067,7.087547497033594,5.083624469395953,25.84323774584128,32.9181785057142,0.3185549464717883,0.1014772539216438,20.984819080171786,16.899814440673374,285.60372812919235,33.093907630619924,0.0522535798908323,0.0027304366114076,0.6691018188644626,1.8935933240939449,3.585695677053155,3.771605855867856,0.2779511384700164,0.0772568353767782,3.885571480043082,20.910307819835424,437.2409731202705,71.86177577800302,0.7301512082988735,0.533120786980305,1.8323283484263984,19.279645715397017,371.7047389112265,0.8168092213028436,0.0275343853371171,0.0007581423758928,0.9342903685836206,2.0777479485142547,4.317036537555194,N
0.0122977906528073,50.479711667660375,2548.201290050127,1019.3323132218924,4307.447279615884,18554102.06667028,-54.48581488968741,0.2057718457926637,0.0423420525209197,14.066528612779631,10.945913781682764,119.81302851603265,0.2173478197420905,0.2565543204792122,0.0658201193565503,18.13804664793563,12.585086042202846,158.38439068964888,32.78456471760168,0.2547465639648797,0.0648958118519125,17.187162189529797,13.148472311121065,172.8823241163173,33.33799706339793,0.0589421531594208,0.0034741774190686,0.7051892634876433,2.159859926441009,4.664994901845762,4.204534013412434,0.5555718087254821,0.3086600346505036,5.442292478150714,21.093990494559776,444.95643498457815,72.87213912323058,0.2828554994748647,0.0800072335831751,2.13782116736495,12.04611190436182,145.10881201240755,0.8042756922817657,0.021111150942858,0.0004456806941321,0.8097774510867712,1.641730415868246,2.695278758386924,N
-0.008311023164748,52.03057753508028,2707.180998634001,1165.467045513529,4411.034902610026,19457228.91204384,-54.54920405446254,0.2416573184552033,0.0583982595629595,16.60067742845909,12.873620899637324,165.7301150675789,0.5527173916042415,0.352059974572273,0.1239462256958295,20.119775385547623,14.438775047880696,208.47822488330223,32.69915765380077,0.1796686316390929,0.032280817195064,12.477101391703028,9.094508922605955,82.71009254335938,33.37400789703217,0.0574233031174866,0.0032974357409227,0.5611124380913833,1.5802535555178967,2.497201299726954,5.442610996636643,0.277528444231063,0.0770220373573142,4.59088329588231,17.449846670525528,304.49714882485085,73.0246138903216,0.4670811499875865,0.2181648006737263,2.2000202032272744,18.732716704637596,350.9146751362084,0.8030394698884995,0.0268251492730959,0.0007195886335238,0.906759472250831,2.11023981667743,4.453112083890794,N
-0.0279977453646007,52.76767054526876,2784.4270547740243,1391.8275146333265,4412.73857246934,19472261.708958752,-57.22013046669856,4.293746928894564,18.436262689391505,110.84129734840651,156.4533011430296,24477.635438551508,-0.8414456105816772,3.02837510571829,9.171055780934266,80.3867219974135,145.57265406014895,21191.3976101158,25.779239584162102,10.286840249569714,105.8190823201675,92.4064641320824,294.80098078649854,86907.61827268147,33.3289484421723,0.057865810889531,0.0033484520699029,0.6289915283036623,1.6208825718647328,2.6272603117748305,6.443295838585824,0.5195198018407106,0.2699008245046111,4.996080924388748,18.761723395745083,352.0022647784484,73.19568965113451,1.2102223699837071,1.4646381848089811,4.383498778688426,20.14189394903694,405.6958918542509,0.802681746646967,0.031597990032929,0.000998432974121,0.9130754648270292,2.153973262355452,4.639600814942188,N
0.0279891511974773,35.274204796934136,1244.2695240560513,909.2397777734612,2956.4231228999224,8740437.681617329,-63.253880477920376,0.0736466670849558,0.0054238315727223,5.3034060074005,3.6235350032133176,13.130005919512136,-4.2577561099802885,0.3011657637745794,0.0907008172699258,20.546654837421396,16.302826135815152,265.7821400146176,9.878902223165316,0.0697222768420574,0.0048611958880405,4.884900652742393,3.4556180654553565,11.941296214301422,33.26400723125235,0.0205836605695125,0.0004236870824409,0.4724641991211421,1.2149403170724644,1.4760799740481405,7.041961273563197,0.2487860118761823,0.0618944797052559,4.416964827841974,16.829900263296814,283.2455428725182,72.35614481692866,0.4221163552607381,0.1781822173786096,2.165814570743093,22.166614248087857,491.3587872235315,0.8104599076891598,0.0275665102451508,0.000759912487096,1.0235555024474168,2.1441982707171894,4.597586224146585,N
-0.0235495804452668,70.09890672149604,4913.856723549003,2506.5587835877204,5612.471133053113,31499832.21935449,-46.314642615752696,1.2750736472639146,1.6258128059469017,43.80828125766901,40.12369608805066,1609.9109877662524,37.4421732257775,0.5913242609283181,0.3496643815624217,34.873355127892324,26.98353054414626,728.1109206268741,22.95830892175,2.6609960529013734,7.080899993556688,43.28593031008145,75.44328458010393,5691.689188234547,33.92194811729795,0.0908281110768788,0.0082497457617938,0.8858155551947529,3.0672286305531955,9.40789147208523,0.2975176278425996,0.0017358538609601,3.01318862661028e-06,0.0796849709106884,0.1070259484424896,0.0114545536400144,80.61180707294605,3.194378709192406,10.204055337741742,8.35083974722165,88.45940080520268,7825.065590815491,0.7305961274374063,0.0589220708208841,0.0034718104298212,1.2172022257845367,4.242872871241825,18.001970201519846,N
-0.0221837413122544,40.40351351183183,1632.4439041007768,975.286686924074,3405.975047573633,11600666.024694214,-63.26405139395688,0.036582861745406,0.0013383057734834,2.6332658448650466,1.819453619283283,3.3104114727230383,-4.26922229821953,0.3102705111301674,0.0962677900769753,20.77660525384641,16.55615036145079,274.10611479096707,9.518405230407213,0.3654216164888744,0.133532957797342,20.388933152099032,18.850996776169712,355.3600794551609,33.3010793403644,0.0234927761139068,0.0005519105295381,0.6011843329291868,1.2497235522090946,1.5618089569461175,7.674888751593396,0.2673749319322395,0.0714893542257697,4.306508835587833,16.583079040501055,274.9985104635054,72.67762016144194,0.3644851791353556,0.1328494458093323,0.9458345762590424,9.866667802665413,97.35113352815428,0.8074659717878311,0.0256192539319711,0.0006563461720308,0.955495690149894,1.993523669733913,3.974136621789367,N
0.0123289094320653,34.338738907721456,1179.1489897726633,1305.449277792201,2713.353004964731,7362284.529551135,-52.606518535992286,12.551597792212956,157.54260713748516,151.6747360012576,341.4383383955248,116580.1389262969,-2.059535027782127,2.960305781658599,8.763410320921329,113.42582966911164,97.7750848938582,9559.967226001176,27.068581875606935,20.96834516056885,439.6714987727512,187.89099241097625,544.4388967786123,296413.7123255124,33.18759990991892,0.0668032969449796,0.0044626804827191,0.6137712749773544,1.4310381770913412,2.0478702642929085,8.06767343473069,0.1561200939653521,0.0243734837397503,3.080400357391281,11.928756340299737,142.29522782624113,70.94896766780316,1.4188293832297565,2.013076818716131,7.004622280615878,40.56158904360542,1645.242505742331,0.8297881524600129,0.0337623277040261,0.001139894771994,0.9864690610967322,2.409809807810259,5.807183309818519,N
-0.0132153215444095,27.27685202635406,744.0266564676157,617.6306958549594,2310.703298337968,5339349.732949963,-38.7019361647115,0.2891235428747574,0.0835924230444516,14.09201763591058,13.488545964717463,181.94087224229585,0.5529529353287725,0.356187129508517,0.1268692712275171,21.670332800627783,16.174237253030324,261.6059507173139,50.74126837837202,0.4148229024858637,0.1720780404267963,13.059592177274572,12.64713284473189,159.94996919229615,33.4791325652528,0.0883181419872259,0.0078000942040757,0.657956355763037,1.830296623880413,3.349985731388038,7.494037371141853,0.3342472014500371,0.1117211916771817,4.589592135558118,20.486204388514786,419.6845702480024,70.2624136017653,0.4862625520210643,0.2364512694980382,1.6247403411352042,16.104116119362562,259.3425559859131,0.8351199983827289,0.0306881335964157,0.0009417615436314,1.0782273843845769,2.393121898983105,5.727032423392503,N
-0.0085003121820529,30.600003511282395,936.360214890495,598.8268822598588,2615.547187720396,6841087.091192071,-39.52403737905024,0.0857287086276987,0.0073494114829728,6.041739237126657,4.208119389561466,17.70826879680316,0.2956685231047267,0.3173639478049124,0.1007198753663191,20.451928873509303,14.240608434619956,202.79492858816903,50.41324767101725,0.0363388203041673,0.0013205098610985,2.6224973912631846,1.7328281438620476,3.0026933761603893,33.60939479595919,0.0497126704119554,0.0024713495994877,0.7533160805994704,2.328264939335346,5.420817627738221,7.482650013629674,0.3442786374538382,0.1185277802070713,5.353356393727718,20.50780707224824,420.570150912555,70.92310692940607,0.3949051782353132,0.1559500997970645,4.489023531706589,18.117758306886603,328.2531660667586,0.8265248233113912,0.0221557936974626,0.0004908791943645,0.7787725845088285,1.7642202719460387,3.1124731679453546,N
0.0046048606009098,30.96908636356912,959.0843101942028,841.665434410862,2581.8614850079325,6666008.727767366,-41.10138923222253,3.012050163187966,9.072446185560654,45.23387312661919,97.1304993983104,9434.333913365175,-0.1380036225606809,0.5577962200325305,0.3111366230825792,20.053154107636598,20.100660392212507,404.0365482030607,48.86718629723369,2.9218728459658947,8.537340927992837,60.69468398385845,103.3339055010458,10677.89602609906,33.63167778086752,0.0960818394445984,0.0092317198710575,0.7286362878084063,2.047680946053077,4.192997256828824,8.546233773655088,0.2565940902014401,0.0658405271263048,3.642987513643492,14.515857615909352,210.71012232535352,70.90104479755554,0.6516784012893492,0.424684738707042,2.1810632941781427,22.94073930904661,526.2775200456364,0.8295683378110829,0.0312910018062385,0.000979126794038,0.9802595881929532,2.457635885014621,6.0399741433116,N
0.0336245862085007,25.18796434728876,634.4335479602896,630.0523839514664,2116.8681637328377,4481130.822625636,-45.71265543057805,0.3816642135509798,0.1456675719054879,11.029347350576687,11.625931952688616,135.16229376854616,-0.9918530871082468,0.0418937307618645,0.0017550846771475,3.050054814794123,1.9955547642969091,3.982238817308093,44.431659489056536,0.1654083143395573,0.0273599104526538,9.737444876656244,7.635593619556731,58.30228992301547,33.579845443488104,0.0376044769737815,0.0014140966884716,0.563724827158193,1.4966812358534425,2.240054721755788,6.515427493108596,1.1031540016912889,1.216948751447504,9.159443694510848,36.022885325677905,1297.6482671869403,69.7226913388923,0.5784226920562695,0.3345728106856219,3.0005181687612663,23.9608694446479,574.1232645434613,0.8415355632254972,0.0309476990145808,0.000957760074297,0.9192131275623956,2.5025230370515184,6.262621550973555,N
-0.0193316046630942,28.99514210330129,840.7182655906353,1420.7067390257018,2108.520055084897,4445856.822695218,-50.34250023760408,10.432811376517948,108.8435532180023,303.0888677868979,541.4408073238711,293158.1478355253,-2.5130519896157635,5.057313574373175,25.576420589539183,175.81031087105285,353.32462233151495,124838.28874570769,10.496493544272637,36.24236571546319,1313.5090726533813,302.82973899822457,885.8591488717863,784746.4316398455,33.41572808292125,0.1622101365568792,0.0263121284018013,1.0196783980521726,3.637319851992976,13.230095705702206,3.4740307577537606,1.0146608425448904,1.029536625393907,6.15754530711401,26.13638980359542,683.1108719654867,70.32605458672036,1.3351409600775477,1.7826013832767955,3.6242446867446745,23.68136897112106,560.8072363463754,0.8336877140419219,0.034397594221572,0.0011831944882319,1.0172318066235375,2.587960562921189,6.69753987523536,N
-0.0071755754810011,15.62681733940414,244.19742015910188,468.27569186102943,1287.7701072374798,1658351.8490944305,-64.24867859413747,0.056375927149691,0.0031782451619872,4.068312960131292,2.787991641139868,7.772897391065772,0.0269004771097282,0.1222921127475536,0.0149553608402603,7.673955505173049,5.9644083082636135,35.57416646768402,-2.878375142699598,0.595238111985998,0.3543084099606554,20.12929893407789,20.057534070714304,402.3046729978651,33.10873464638372,0.0733420046692297,0.0053790496489013,0.759458352417797,2.167590101580961,4.698446848471764,1.4076587561277527,0.2848722132443461,0.0811521778787322,2.3114251234080747,9.64949420475125,93.11273840752796,68.24383420937036,0.5778693848936491,0.3339330259973644,2.625390854841553,19.92365010640144,396.95183356231007,0.8587331048697748,0.0331268429605791,0.0010973877245348,1.1656095794708308,2.607130824105428,6.797131134000649,N
0.009147075561287,28.000522048626525,784.0292349956202,1115.1276616615694,2187.4402189999646,4784894.711698614,-51.33632166808445,18.569094563841507,344.81127292088826,138.92554099854516,538.8187943243223,290325.69311711635,-2.614422789032446,5.104120971617656,26.05205089290716,57.36578751566878,161.86106440029178,26199.004168795404,-14.946122333436268,29.46968557094249,868.462367650216,164.29515057590552,912.4876760849236,832633.7590068643,32.95539467235212,0.0953876692261017,0.0090988074403881,0.5464760937881246,1.3131608610808043,1.72439144707448,0.8595880128127187,0.2136149623010949,0.0456313521188982,1.977180275144209,6.015269118481723,36.18346256775989,69.14453943690206,0.6461596424741498,0.4175222835623211,1.830623257061197,23.42571138723167,548.7639539978754,0.8475863902437997,0.0313787970693056,0.0009846289055166,1.0767289906379534,2.4449165798686545,5.977617082516638,N
-0.0108746445010549,23.728644204718968,563.0485557941431,831.8156142620235,1907.187220658118,3637363.0946416375,-46.47595488384501,11.344845784939723,128.7055258840646,73.23687184503066,315.45352767347777,99510.9281216416,-5.159322317213741,5.151085626477607,26.5336831313042,31.837701806226622,136.78062261043675,18708.93872169872,-27.92305989393818,31.49807338229133,992.1286267962098,176.3394173490205,846.2192024183277,716086.9385415106,32.98911063556121,0.0563334294840858,0.0031734552774384,0.5620941306741299,1.218442191320379,1.4846013735896064,0.6289349643396306,0.228841152782908,0.0523682732070102,1.9394602924947484,8.144923753959473,66.33978295781328,68.93303992679336,0.6284081685967332,0.3948968263591003,2.031063047287844,28.01055614018836,784.5912552826436,0.8487381096093273,0.0312500057884136,0.0009765628617758,1.053627388547259,2.439627506792509,5.951782371898636,N
-0.0013097967817544,56.15917362523837,3153.8527822696683,2392.984647419712,4303.90884679882,18523631.36155315,-48.944382399711166,10.393124594460142,108.01703883597229,175.45804785256448,455.8393851077414,207789.54501540377,38.00939901988347,7.064606951252929,49.908671375691206,81.57222828297411,295.19476415358207,87139.94878368893,7.018041760871521,9.587812096213046,91.9261407922892,163.99756983588796,385.6960372024847,148761.43311370045,33.217618197591875,0.4784266649216038,0.2288920737080085,2.383887462852219,9.887076515520985,97.75428202376656,0.2810095728043048,0.0200071175448809,0.0004002847524546,0.1510207379105797,0.4894228474461525,0.2395347236022999,79.61788223466911,2.726106458415956,7.431656422617183,5.6652609183398495,87.33004598315512,7626.536931419986,0.7394489651306457,0.0697183954895726,0.0048606546696404,1.5320706474944803,5.0743066927298255,25.748588411882697,N
0.0050890194777115,38.89720974303103,1512.9929257933477,1438.0117180443594,3092.820808802754,9565540.555363322,-57.06747910997648,9.067559680720857,82.22063856343453,143.86697107097842,295.6879720613599,87431.37682175956,-3.1378280090412485,3.544522251075861,12.56363798837189,93.32826209362968,150.12909046689344,22538.743804416677,-19.39332575882249,19.017679221123355,361.672122957547,168.95642429781722,603.5757058622106,364303.6327070658,32.85342028525787,0.0811924559259544,0.006592214899288,0.7986967503691675,2.617038288673572,6.848889404383496,0.5806253950208827,0.1004614000253138,0.0100924928950461,0.5107342023002542,2.6849774913014395,7.2091041287953725,67.75421385317175,0.966297204139894,0.9337302867285762,3.555537691150564,34.97173154089246,1223.0220069682523,0.8556384526090307,0.0341762318700447,0.001168014824835,1.0077497867469658,2.661172408356142,7.081838586996027,N
-0.0025410148680428,35.17228659473276,1237.0897443020176,1283.5867934542955,2804.353931581718,7864400.973577838,-61.56384787484959,2.011702439995657,4.046946707084479,56.36404202279728,81.8448357968432,6698.577146612227,-0.8435524356595867,1.2663544207294395,1.6036535189009948,30.78902760120881,44.38808825630582,1970.3023790495947,-17.044431313311353,6.204232284696096,38.49249824246535,94.01967433098456,262.93950504022706,69137.18331079959,32.657163950980845,0.0275709049408785,0.0007601547992589,0.5807731157465639,1.39014244293604,1.9324960116521817,0.5413361337904044,0.1025421007778275,0.0105148824319301,0.9395760388547272,3.9811112720444446,15.849246960399334,68.83166785994878,0.8229696663222767,0.6772790716865996,2.3487848021003463,29.556982547253423,873.6152172986435,0.8492099927215722,0.0322686114375729,0.001041263284109,1.0131722166622712,2.565886781738657,6.583774976701161,N
-0.0094633113832151,24.65041830643144,607.6431226820501,969.1484502785884,1932.0765471184573,3732919.78392518,-63.838486982876745,2.214293518550815,4.903095786296148,107.21298733642487,130.27437809701146,16971.4135885631,-0.0924018510859661,1.8256138353712292,3.3328658758988507,79.29766263041466,130.21357033005933,16955.57389810131,0.1881141139930675,6.922160599416719,47.91630736411723,130.4088377895351,440.21577600918783,193789.92944737145,32.68036477188078,0.0478619890527388,0.0022907699960844,0.6456979628309719,1.62360534488125,2.6360943159269628,0.3987700961299688,0.0896650358587834,0.0080398186555569,0.5801275549035924,2.281735520612154,5.206316986023219,68.83668608581293,0.8459276371676434,0.7155935673240321,5.989518452332444,51.07914359629456,2609.078910530879,0.8494222554216945,0.0417131500698377,0.0017399868887488,1.4840717294679375,3.224398116017216,10.39674321057537,N
0.0061489343844205,34.49420044957757,1189.8498646556377,1715.8292811745182,2490.922236225295,6204693.586921624,-48.898109704718735,29.008327956999697,841.4830908608502,309.62528700191126,1100.0708327584105,1210155.8370857828,-5.791355434931371,11.182839605146803,125.05590163443992,135.55827117403058,433.74273180324775,188132.7573921441,-9.49097012894487,24.47804208480767,599.1745443056154,196.51372084289116,781.5362806114443,610798.9579119702,32.7315013934353,0.0638033711673836,0.0040708701723229,0.8703148008310485,3.3645506917112145,11.320201357094412,0.3863260922637507,0.0597704643337034,0.0035725084066665,0.68428464876402,2.4951314088686702,6.225680747522955,68.9880575588647,0.9235006133659236,0.852853382887237,9.364672066071297,46.23491258599534,2137.66714183463,0.838669996599314,0.0544823196416648,0.0029683231535365,1.3195177371547169,3.3116612371275886,10.96710014949343,N
0.0016047284662888,51.67238962023201,2670.035849065061,1822.4497287830416,4148.326513200406,17208612.86012144,-33.922881434512774,42.82293141900949,1833.8034553171904,304.4314447643156,1174.0371374233869,1378363.200049301,-9.290259191891158,17.736915720369662,314.5981792714965,174.07850263382832,525.6724307428433,276331.50444308936,15.736538055317869,19.436323010062743,377.7706521514944,183.15874484075744,554.3624757880704,307317.75456187886,32.50567454251247,0.2413883515787503,0.0582683362779063,0.7606368181651861,2.3478486546711324,5.512393305241046,0.2825527888165819,0.064418748385368,0.0041497751435373,0.501072216511295,1.803482238773483,3.2525481855714142,70.0091922833021,3.179914875361356,10.111858614544428,7.476004019796655,63.52946023533295,4035.9923177927503,0.7790860525123177,0.1250166312879958,0.0156291580985986,1.135474413504847,3.5085708338807104,12.310069296358384,N
0.0255159346014411,63.54547392096132,4038.027255839576,1537.5615937821867,5355.772923341886,28684303.60640209,-64.2385045637284,0.0867356626637599,0.0075230751777215,6.31439065640158,4.216788727383946,17.78130717139232,3.339462487197536,0.3844592533513216,0.1478089174874557,18.82549129737694,15.00949818912137,225.2850358892377,-0.1125808100575027,0.3433641989134587,0.1178989730954812,18.39334649565203,15.68982721126788,246.17067791944203,32.63687865642549,0.0436802889003969,0.0019079676384221,0.5708608327426806,1.4597747025338736,2.130942182157859,0.2311937647880181,0.1549445975044227,0.0240078282958075,1.0598946924226291,4.150888887533196,17.229878556646568,67.48885298812601,0.3289315508984138,0.1081959651764357,1.9449210878855163,23.2295271504848,539.6109316351105,0.8684563968654442,0.0282429908441417,0.0007976665318222,0.9406485202021148,2.2686921011814407,5.146963849963061,N
-0.056418966496301,70.71331321713753,5000.372666144996,2113.6848465596327,5829.2418469742615,33980060.5105159,-61.75243043691078,13.945319241627926,194.47192875091807,258.89744882402465,1029.229905856955,1059314.199110316,2.627632534932628,7.159061773336771,51.25216547445183,170.77569962264332,519.4572905528673,269835.87670852605,0.3660219073575663,8.28170841757843,68.58669431378942,192.266013837468,613.8890395399274,376859.7528672544,32.587633460009755,0.0348390903963642,0.001213762219646,0.4871468941040868,1.097438069293876,1.2043703159354695,1.128003438589215,0.2714797514406773,0.0737012554422919,2.6154958621921067,13.204763340630173,174.3657748820505,68.13168206664484,0.614566096140128,0.377691486524917,5.808664944722351,29.49484072309992,869.9456292810332,0.856243246506604,0.0343410972397142,0.0011793109596275,1.0972752247374764,2.6509770753745485,7.027679454161396,N
0.0074838521102971,29.757201412065143,885.4910358782118,1410.697170512935,2195.103756133294,4818480.500190497,-51.47342818433522,6.78115886242841,45.98411551749137,151.70886068393676,242.0840698494569,58604.69687487675,35.33120681024379,3.164062998712249,10.01129465981995,76.12741841375761,115.56135367307296,13354.426462753056,1.5898141595539017,14.346159542331533,205.81229361403004,214.1642480828708,542.2836969061663,294071.6079302188,33.172175495113365,0.2494539532255582,0.0622272747798589,2.043847187010252,8.064856696253974,65.04191353111256,0.2808582289233266,0.0061114992631048,3.735042324293098e-05,0.1405171034369337,0.3324726925964186,0.1105380913223126,82.37471281272853,4.413528486821805,19.47923370398757,23.25470780643532,125.57121866986472,15768.130958234986,0.7008439353310664,0.0655103743389578,0.0042916091460303,1.2573048701180023,4.376444140833471,19.153263317835624,N
-0.1519818932018077,124.8957486332642,15598.948026663516,6539.326538326676,8785.009460410574,77176391.2195033,-17.058407121922958,12.25402787302237,150.16119911280916,126.57369445798972,556.9278234082798,310168.6004862841,-54.60305800861579,4.328793836882539,18.73845608223225,66.07569477761703,263.5502522288765,69458.73544990443,21.21025841283278,8.901731452653715,79.24082285516441,121.2269533598241,579.6070487450412,335944.33095493657,30.08826971303712,0.1032888308472953,0.0106685825778011,0.7117885702895039,2.0693335421715937,4.282141308756435,0.2854303630831484,0.0507723142969181,0.002577827899065,0.383518981494928,1.5971138895660262,2.5507727762447208,61.26621167235814,2.056048015518566,4.227333442117835,12.083780838403428,103.12753562378175,10635.288603834377,0.7414148209927011,4.245297132348085e-14,1.802254774192288e-27,4.722211173534051e-15,4.3342428129898746e-14,1.8785660761954377e-27,N
-0.004600279343493,22.988877236100564,528.4884765765026,1053.2335041120657,1718.7936756263518,2954251.6993731447,32.270803315222025,0.4315574448743849,0.1862418282265077,12.35995695906638,11.330822804817988,128.38754543418338,-41.90686457192771,0.3237334761094273,0.1048033635538931,21.933650930587685,16.13148316395262,260.2247490688868,32.02221791697459,0.4162460197414093,0.1732607489505657,14.032128536646256,11.889945000477598,141.3707921143822,29.78577617276501,0.0732717770326086,0.0053687533095163,0.7711692651068855,2.4697119190717745,6.099476963205186,0.6121149524889734,0.0308190061657385,0.0009498111410438,0.2936562801466333,1.3326361697210316,1.775919160848742,62.30666849590414,2.431081188549669,5.910155745320074,5.424509050577508,28.75272025434633,826.7189220246976,0.7414148209927011,4.2453088534594966e-14,1.8022647261261582e-27,4.925910420645575e-15,4.3333158196181594e-14,1.8777625992553e-27,N
0.0053037810319583,17.500001686062745,306.25005901219896,772.4653612063804,1325.9169198276013,1758055.6782851135,32.611633706244056,0.0673297493835426,0.0045332951520506,4.818653325892995,3.2480453365453674,10.54979850825411,-41.92800480612295,0.3215379784349908,0.1033866715760606,22.129938343428638,16.7457536580245,280.42026557524093,31.66285347638071,0.1081025915711677,0.0116861703044027,7.264988576483657,5.212074793708696,27.165723655213547,29.50338352138547,0.1021195880890155,0.0104284102714702,0.9042014525185385,3.164649663638173,10.015007493565202,0.6895152243101944,0.0406636610949951,0.0016535333336486,0.318301957727544,1.3151575326810396,1.7296393357676798,59.32948749824027,0.6445974701851861,0.4155058985691419,2.9481923887260435,29.73157735687717,883.9666921279712,0.7414148209927011,4.245297132348085e-14,1.802254774192288e-27,4.722211173534051e-15,4.3342428129898746e-14,1.8785660761954377e-27,N
-5.370902619734978e-05,34.39583357048874,1183.0733670087604,1896.3714808515904,2345.301691108736,5500440.022317497,32.54345925908716,3.177880292787718,10.098923155288553,132.3916734732114,244.1441005377052,59606.34182736508,-42.15040735342525,1.5282141126384503,2.335438374067327,55.10480195192717,113.8047874153559,12951.529638654349,31.003261219609797,4.256698939417577,18.11948586083872,122.55487293034268,317.3427221052685,100706.40327318166,29.16986285689528,0.0880183084123313,0.0077472226157682,0.648699894553349,2.061885152790968,4.251370383299834,0.800049008791248,0.0225198839196497,0.0005071451717544,0.2312631491037698,1.270450213925752,1.614043746063989,59.464351152392666,0.8107168457258975,0.6572618039437488,6.408221761400531,30.71114221694729,943.1742562695624,0.7414148209927011,4.2452943344005774e-14,1.8022523985693635e-27,4.844501795219828e-15,4.333636919201935e-14,1.8780408947470034e-27,N
-0.0001719221313018,98.32089335855808,9666.998070824951,5342.629875098361,6766.532488554844,45785961.91866821,11.501165729757547,15.03979941872132,226.19556655537016,259.1799404787283,950.746648274794,903919.1892057548,-52.09749917885545,4.84752406479236,23.49848955874104,95.59395656689588,257.85070004605905,66486.9835142427,26.72805763176384,7.296772102198304,53.24288311141945,184.20241703769076,397.7526600320903,158207.17856260357,29.04645365133792,0.0610442002434656,0.0037263943833643,0.5751060160104053,1.647721528140093,2.714986234296323,0.535730135830945,0.0784824352916119,0.006159492649302,0.6633005836098648,2.484227263677812,6.17138509760015,65.69752260503788,15.627326554897865,244.21333525341595,14.188477375052509,105.47982864794868,11125.994251600614,0.7414148209927011,4.2453088534594966e-14,1.8022647261261582e-27,4.925910420645575e-15,4.3333158196181594e-14,1.8777625992553e-27,N
0.005892599519826,31.784671304857845,1010.2653299578536,1792.4121007227957,2134.291153509567,4555198.727949197,10.818028009901717,3.683385490236397,13.567328669684024,63.55866304943854,188.96520843968,35707.850000651706,-49.58223131430248,0.5489640499288145,0.3013615281142459,13.740286845750926,35.9547074101176,1292.740984947165,35.6859993559786,2.1117105544436465,4.459321465748693,30.030358370347585,83.21097704290199,6924.06670043436,29.097191499357564,0.0329697318799363,0.0010870032202348,0.5425916792303344,1.2980156516293178,1.684844631874682,0.4426543418122288,0.0235150717475492,0.0005529585992923,0.1340835870995913,0.4022110348107483,0.161773716523533,55.90557498864191,1.4308664705366598,2.0473788565060382,4.255336277015793,49.33677621894477,2434.1174876782343,0.7414148209927011,4.245297132348085e-14,1.802254774192288e-27,4.722211173534051e-15,4.3342428129898746e-14,1.8785660761954377e-27,N
0.0067025432459356,18.91964231770595,357.9528654299298,750.5523588426622,1479.5174581268957,2188971.9089022707,10.244272639795716,0.4543746843737318,0.2064563537997284,17.07669497489721,31.784879790279778,1010.278583282536,-49.42765473284687,8.281933842662271e-12,6.859042817423465e-23,3.860862441890031e-14,1.7608937786545146e-13,3.100746899704175e-26,36.57423653398644,0.0611313192615668,0.0037370381946596,4.4329772758635935,2.9771418675737253,8.86337369966037,29.15827760734654,0.0157904757996737,0.00024933912598,0.4868364497544304,1.0629754378272187,1.1299167814239677,0.4342204697970178,0.0051556419411844,2.6580643825700343e-05,0.0878372818693016,0.1777823792225208,0.0316065743620202,56.38988608963952,0.9002481475044743,0.8104467270852379,3.1690129388326884,36.978472403962506,1367.407421330617,0.7414148209927011,4.2452943344005774e-14,1.8022523985693635e-27,4.844501795219828e-15,4.333636919201935e-14,1.8780408947470034e-27,N
-0.0239163559057382,39.37267120566895,1550.207237869713,2029.525284777441,2792.9466949927764,7800551.241071073,12.732707022712896,2.021125151221397,4.084946876899715,46.75400003369537,108.01482646795483,11667.202736902396,-49.41111448901052,0.2290287870191826,0.0524541852834781,11.664606659961212,15.82150965209679,250.32016767139183,35.56577807459646,0.9033053493686278,0.8159605541979789,28.63262622971306,43.28082643465785,1873.2299368669776,29.192795555514728,0.0177539852848705,0.0003152039934953,0.5288416275911083,1.2117789192324928,1.4684081490962682,0.4683216686467582,0.0178181112782456,0.0003174850895239,0.180753705788373,0.6901459825688382,0.4763014772559071,55.71824105031015,0.9970935211602984,0.994195489939842,2.5997266276895594,38.80916420246475,1506.1512260938714,0.7414148209927011,4.2453088534594966e-14,1.8022647261261582e-27,4.925910420645575e-15,4.3333158196181594e-14,1.8777625992553e-27,N
-0.0032629922623967,51.05295164438941,2606.4038716043638,2424.917448392372,3763.036482146092,14160443.565962434,-45.79433995510842,7.552690736972164,57.043137368345135,238.03756861053128,341.8968247312648,116893.43876132116,33.699291859706584,6.132898001639206,37.612437898510166,124.33751484239482,258.7287179270173,66940.54948015811,27.13240338528277,6.2007110331212765,38.44881731627193,223.9411785708124,300.58589112053346,90351.8779407252,33.41726441812218,0.1005127633157036,0.0101028155893586,0.7480087927833592,2.500278361807396,6.251391886522275,0.2972995144206455,0.0183644184397256,0.0003372518646293,0.4827570711664296,0.7526913844151938,0.566544320172861,82.32051201946247,2.4351709513509947,5.930057562303709,12.052997833124698,84.75092909305795,7182.719982136537,0.7112427185316353,0.0559176381541267,0.0031267822567358,1.4135527694792775,4.398122413497201,19.343480764106445,N
0.0079527371512882,26.353421714365798,694.5028360552066,1024.9123775266312,2071.1326875814107,4289590.609568196,14.823672112703145,0.294310366933812,0.086618592084715,13.400388349835527,16.98331063497549,288.4328401240715,-49.42752601499602,0.0072117622773779,5.200951514541128e-05,0.5308580164957533,0.3428127456577238,0.1175205785853872,34.63720262190709,0.1265156052366834,0.0160061983684043,8.668618647006205,6.283646223073292,39.48420985674325,29.269733271590397,0.0359846463043793,0.0012948947696512,0.5792894001332504,1.41695048630319,2.0077486806348466,0.5227495516943225,0.0171922624529741,0.0002955738882519,0.1450889710151616,0.4716218440359148,0.2224271637718367,55.703536285293616,0.6480941164069112,0.4200259837212549,4.480358544167301,31.295282708658437,979.3947198148556,0.7414148209927011,4.245297132348085e-14,1.802254774192288e-27,4.722211173534051e-15,4.3342428129898746e-14,1.8785660761954377e-27,N
-0.0030659203035956,26.29400088410876,691.3744824935121,1016.8549113989156,2069.297367611771,4281991.595605004,15.3751712017064,0.3988233111496256,0.159060033516351,19.85429401507269,26.25883147450646,689.5262304065312,-49.42707549521412,0.0152900030065315,0.0002337841919397,1.108183088872093,0.7503566087564199,0.5630350403044349,34.60534417382896,0.057257856972338,0.0032784621850647,4.120149653051309,2.8608360696794697,8.184383017579076,29.39708847909337,0.046770892442058,0.0021875163798265,0.6596601380180951,1.6977615845117684,2.8823943978439104,0.5817059774098424,0.0247280982317088,0.000611478842157,0.1894024371525523,0.6801559921330256,0.4626121736344603,55.948994737998426,0.4819378616369835,0.2322641024792282,4.409345459293382,27.851986795917465,775.7331684799607,0.7414148209927011,4.2452943344005774e-14,1.8022523985693635e-27,4.844501795219828e-15,4.333636919201935e-14,1.8780408947470034e-27,N
0.0193415831187856,27.990296584193096,783.4567028710918,1013.5469538348126,2235.330638122377,4996703.061728592,15.729900045214102,0.194721765421615,0.0379165659289104,12.570570251707393,11.284961628091496,127.35035894749748,-49.42585269023862,0.0268935420903519,0.0007232626061655,1.952265861952969,1.3196943782241806,1.7415932519165067,34.60521327432802,0.0600256895120711,0.0036030834013995,4.3085671134477534,3.0160554690899497,9.096590592627397,29.555589393094984,0.0526681167315139,0.0027739305200443,0.6498784282700905,1.803162590289444,3.251395327019338,0.7668251975976151,0.0954302860829866,0.0091069395018806,0.5697883771506864,2.286696552862378,5.228981124872682,56.655123391567415,1.0714876103897009,1.1480856992186312,3.9221561112320633,25.51420701521553,650.9747596152732,0.7414148209927011,4.2453088534594966e-14,1.8022647261261582e-27,4.925910420645575e-15,4.3333158196181594e-14,1.8777625992553e-27,N
-0.0117934294057336,29.384804193421218,863.4667174857052,1021.972671715282,2365.32631759345,5594768.588700189,15.801403327061497,0.0847415712460852,0.0071811338972553,5.883471476632683,4.466926929672824,19.95343619503628,-49.41928803542602,0.058235228360815,0.0033913418222362,4.2037269991172455,2.8886146590137622,8.344094648269193,34.604444020262555,0.0583003174868181,0.0033989270190637,4.188435588277504,2.92370460178899,8.548048598522117,29.73953942308021,0.0607901038852261,0.0036954367303765,0.7063075432638017,2.0867824582167023,4.354661027920943,0.86381590175539,0.0093579348605374,8.757094485406119e-05,0.0868095856793971,0.2089476226155364,0.0436591089966846,56.900767138587774,0.6314980144010778,0.3987897421925038,2.639606133394344,21.1924898569408,449.1216263365387,0.7414148209927011,4.245297132348085e-14,1.802254774192288e-27,4.722211173534051e-15,4.3342428129898746e-14,1.8785660761954377e-27,N
0.0039790823444027,44.515045411076464,1981.5892679502,2267.93675842656,3176.9357550484783,10092920.791705444,14.493861967502705,3.122103716278734,9.747531615201485,55.02476062109627,115.7156608221466,13390.114159506073,-49.08864993224596,0.7759079395640177,0.6020331306784793,21.91044700514804,30.805732484623103,948.993153914163,35.4828940495264,1.963529427211508,3.855447811525552,34.162397682801554,67.30392895191966,4529.81885236505,29.963732940438398,0.0722001989318358,0.0052128687257966,0.7916311711419123,2.5178239426984046,6.33943740642534,0.8318348544272473,0.0827544812344769,0.0068483041643874,0.6366641267965388,2.520917182989432,6.3550234434913735,58.08686123144148,2.4089210217376604,5.802900488969614,10.801867171662144,48.19595503160178,2322.850081408181,0.7414148209927011,4.2452943344005774e-14,1.8022523985693635e-27,4.844501795219828e-15,4.333636919201935e-14,1.8780408947470034e-27,N
0.0076609483479351,82.36390393943985,6783.8126721452745,4484.757717356715,5661.073835442114,32047756.97032728,-41.689385588369625,20.099365502657143,403.984493609404,283.3459806413113,826.5667008196111,683212.5109038166,7.117689561823521,22.251535647189115,495.130838658128,229.826797736995,649.5825655617246,421957.5094817522,36.91153559538639,7.508137581855946,56.37212994807765,238.1830120241056,558.0169945634135,311382.96622158465,30.299584041387728,0.1209624868786447,0.0146319232318663,1.1152143019254228,4.032347834922184,16.259829061801625,0.6758537653255895,0.0584843052480072,0.003420413960342,1.0132141379887385,2.8657915331814725,8.212761111654615,62.96811820030969,2.567221924459865,6.590628409427416,7.405752508133427,78.09441615901673,6098.737835217694,0.7414148209927011,4.2453088534594966e-14,1.8022647261261582e-27,4.925910420645575e-15,4.3333158196181594e-14,1.8777625992553e-27,N
-0.0058116427180139,61.75310024419464,3813.445389769553,2820.5266075372824,4622.364353113756,21366252.212936748,-44.56277471756353,9.905506657571076,98.11906214318492,233.1433458007035,411.92801882923135,169684.69269657557,28.355805962254287,6.608594913141183,43.67352672599552,135.13100895917077,269.66207552724524,72717.63497766171,28.2523037044245,19.076877562721798,363.92725754307816,294.64550585290925,823.969473472105,678925.693213898,33.62910840822629,0.1585981592044521,0.0251533761030407,1.3576867710806657,5.34954614423329,28.617643949281263,0.3062100291355007,0.0106190613213693,0.000112764463347,0.1588611652866401,0.4323948017362696,0.1869652645685479,82.08850343112663,3.863046515083011,14.923128377694995,7.868838679032268,107.4510863365954,11545.735954914478,0.7209242577656566,0.0510942978320781,0.0026106272709531,1.0825577397568615,3.488142178079692,12.167135854498538,N
0.0015350033212172,34.62984091920527,1199.2258820894638,1761.616256082713,2473.3721323521418,6117569.70509618,-49.15962868460792,3.553668853562153,12.628562320777744,70.22612821832895,189.4867046398584,35905.211235272924,8.42221984024595,2.573580723049117,6.623317738050018,71.20842367806486,162.19670543995235,26307.771255574666,39.89611372067908,6.365270275863613,40.516665684792834,104.73512638230754,319.932197037128,102356.6107010037,31.430004161748084,0.0733453885643457,0.0053795460236548,0.7977592789407534,2.588189507873165,6.698724928664737,1.272641631049665,0.0368779181280894,0.001359980845462,0.3969875910812044,1.6238009731051255,2.6367296002571523,57.85293834467919,2.085068298327671,4.34750980869105,11.366223626226226,61.18218644050814,3743.2599376410985,0.7414148209927011,4.2452943344005774e-14,1.8022523985693635e-27,4.844501795219828e-15,4.333636919201935e-14,1.8780408947470034e-27,N
-0.0218809163368725,28.01769668035597,784.99132727243,898.0017332334006,2286.781297399242,5229368.70213496,-57.7719045601044,0.3988757830410088,0.1591018902965779,22.62762954873297,18.14843755390241,329.36578564789534,10.514928876075434,0.4738176701217831,0.2245031845196349,14.963453673742247,27.18845023852422,739.2118263727076,25.51202302526988,0.3593592120835011,0.1291390433092747,11.765524788711964,12.483092591409369,155.82760064569948,31.680232300247965,0.0716553567065959,0.0051344901447495,0.7598326933465948,2.394946070914165,5.735766682587198,1.3494324077211266,0.060611183558995,0.0036737155724221,0.4386563492427096,1.7399809621462157,3.0275337486312703,56.57947297591231,2.059873404722365,4.243078443482506,5.755279704293962,43.06830687525351,1854.8790571010088,0.7414148209927011,4.2453088534594966e-14,1.8022647261261582e-27,4.925910420645575e-15,4.3333158196181594e-14,1.8777625992553e-27,N
0.0443095780856509,32.66013303175978,1066.6842896522462,998.4607665540864,2684.1583324433136,7204705.953624871,-57.36444785001639,0.1164045290616406,0.0135500143860623,8.02111665046615,5.510251535364575,30.36287198298766,9.97074232063948,0.2617496419964781,0.0685128750852844,12.480972245126232,18.4721316290249,341.21964692002217,26.357119890417767,0.4163976989795567,0.1733870437154695,15.249258967635502,16.785494163413052,281.75281430997364,31.984063870578424,0.0926870606490819,0.0085908912117665,0.8847481774249575,3.065758404389376,9.398874594084091,1.5423341539723971,0.0490597020602191,0.0024068543662374,0.4140690634544282,1.627854691854427,2.6499108977924712,59.60383641571426,0.9289287228787894,0.8629085721892187,3.1967091289339984,27.173346214634183,738.3907445003741,0.7414148209927011,4.245297132348085e-14,1.802254774192288e-27,4.722211173534051e-15,4.3342428129898746e-14,1.8785660761954377e-27,N
-0.0362034245086705,42.7103774083884,1824.1763383669747,1742.517125910204,3315.066761265761,10989667.631649062,-53.77201270666759,3.814827322775454,14.55290750259414,56.83893813694929,137.05613085696498,18784.383005481508,-10.372117092637966,24.171024915677265,584.2384454742911,128.3830536090222,600.3839871307488,360460.9320030151,16.538329360205374,14.38475319102068,206.92112436657965,97.55765252460094,458.00474685700266,209768.34814354707,32.31843954098003,0.1138038148807443,0.0129513082814107,0.9592640316113678,3.357029890484558,11.269649685606762,1.6394529636034003,0.064390327086928,0.0041461142223615,0.2560215815687365,0.807951433174356,0.652785518368496,59.97404197705059,3.8307743797131577,14.674832348266728,10.241156270271002,81.64015918331536,6665.1155914770725,0.7414148209927011,4.2452943344005774e-14,1.8022523985693635e-27,4.844501795219828e-15,4.333636919201935e-14,1.8780408947470034e-27,N
0.0422509392892583,55.47282168614837,3077.2339458232127,2135.09790095092,4370.5985060256535,19102131.300873674,-46.16320936766916,3.1065853409291377,9.650872480475808,48.315866984086526,94.51389318101482,8932.87600423228,-42.38681087229335,2.6603351857558835,7.077383300570792,46.82300473330326,82.2472725848449,6764.613847645778,-6.216265223876517,5.25930486163152,27.66028762758094,63.76893169067432,157.94866268348645,24947.78004350178,32.62075690590954,0.0713858041298475,0.0050959330312649,0.723622401339893,2.3500201356614645,5.522594638014328,1.485971763758865,0.1557626979850412,0.0242620180835791,0.6963285355940665,3.4080377663764003,11.614721417047845,56.764053127652325,2.9842570910359387,8.905790385398284,6.5496647458058375,72.28747223503476,5225.478642130921,0.7414148209927011,4.2453088534594966e-14,1.8022647261261582e-27,4.925910420645575e-15,4.3333158196181594e-14,1.8777625992553e-27,N
0.0201653334151977,70.89022345693698,5025.423781774459,2082.373051970439,5856.981974991598,34304237.85537648,-44.06513769571255,0.4433922428502897,0.1965966810198103,16.499709608681425,34.35726597388461,1180.4217252002493,-43.53290406317696,0.1382213974207893,0.0191051547049557,8.940818500089478,8.13522505353396,66.18188667164662,-12.26820859210599,0.4599900246461093,0.2115908227739283,14.899589939279387,36.410414953175696,1325.7183170624403,32.87199339183609,0.0831802334691448,0.0069189512399814,0.7814402583753566,2.6547606187414945,7.047753942820722,1.3848786238877238,0.0248894508087606,0.0006194847615617,0.217521575611084,0.7831466933681297,0.6133187433334354,57.25137671488698,1.4862411351474791,2.208912711804468,7.337526204540294,29.608772760373025,876.6794243754077,0.7414148209927011,4.245297132348085e-14,1.802254774192288e-27,4.722211173534051e-15,4.3342428129898746e-14,1.8785660761954377e-27,N
-0.0183415764886522,76.81298421963129,5900.234544725327,3211.913973644665,5920.350567535321,35050550.8425158,-43.92554748378993,0.8418023448244449,0.7086311877519338,38.09765106634365,58.66607765383072,3441.708667285296,-44.661937906804376,1.014809283594823,1.029837882070238,15.558452248862514,37.132657367546,1378.8342431755684,-3.77432111595359,7.951340419173649,63.223814461584574,70.88518366458807,244.59851481141752,59828.43344795123,33.15154772931873,0.0756905218221133,0.0057290550937038,0.7646138724929727,2.4127784996508166,5.8215000883772445,1.5089700020208052,0.0915886184644663,0.0083884750322295,0.5633705670157859,2.3563641735408494,5.55245211834685,58.53088832348765,1.094077589134615,1.1970057710466118,3.758914640226208,52.8653205114394,2794.742112777215,0.7414148209927011,4.2452943344005774e-14,1.8022523985693635e-27,4.844501795219828e-15,4.333636919201935e-14,1.8780408947470034e-27,N
-0.0547243271222694,79.03480121427987,6246.499802980735,2773.441436336132,6351.161327063891,40337250.20239196,-44.21566861031933,0.3689769287403673,0.1361439739426741,18.34675434032514,26.407952823284685,697.3799723168296,-45.47318491851754,0.019884783918432,0.0003954046314827,1.4460454999313053,0.9698661590113868,0.9406403663955004,2.16661432764868,0.3624501062827608,0.1313700795443846,15.060422731635924,23.09715982683241,533.478792066241,33.439727934843255,0.1008903413430404,0.0101788609763152,0.9259603790620063,3.273325522702365,10.714659977574714,1.741033182614848,0.0557735607558242,0.0031106900793836,0.4305508042071406,1.6727950504904432,2.7982432809453246,59.905782267593686,0.9384985313043684,0.8807794932604563,6.805898055546125,33.81501232453294,1143.4550585083143,0.7414148209927011,4.2453088534594966e-14,1.8022647261261582e-27,4.925910420645575e-15,4.3333158196181594e-14,1.8777625992553e-27,N
-0.0435712522588851,85.70109337062385,7344.677404920388,4389.561925519083,6099.584147376094,37204926.77092175,-59.64240014720534,4.813282721203648,23.1676905542376,73.29199803973518,228.07112275420437,52016.43703436335,-15.607365152383672,6.176253769722894,38.14611062801627,70.5472160283961,332.2452083253773,110386.87845517334,-4.754586127099287,12.725659066453886,161.94239867562,129.80288095708755,506.75127511374535,256796.8548294068,33.095617006969334,0.0695207343354349,0.0048331325025381,0.776268819022351,2.564149018220926,6.574860187643338,1.6317237277283303,0.0348596839346271,0.0012151975640221,0.27895637292259,1.0881669677774144,1.1841073497618924,55.23545614904253,2.4818064079693323,6.15936304663764,11.21671753051061,71.51786548023038,5114.805082848329,0.7414148209927011,4.2453088534594966e-14,1.8022647261261582e-27,4.925910420645575e-15,4.3333158196181594e-14,1.8777625992553e-27,N
0.0959590362416528,100.88020482907002,10176.815726355124,4990.271935111379,7303.855497157222,53346305.12335377,-56.30876637653015,1.0371675872109354,1.0757166039609531,43.76667522282906,78.06210431632043,6093.692130292092,-21.88859925774818,1.673460329570253,2.8004694746453795,38.389400066498496,137.37564913934077,18872.06897645526,-18.55002735766468,1.9719948349043293,3.888763628889353,71.36645674759951,153.0459352338627,23423.0582916077,32.792043682645605,0.0426269981166745,0.0018170609684389,0.6024220079630883,1.6160094470665218,2.6114865330082457,1.5637210793893954,0.0170363212943699,0.000290236243245,0.2031261502562867,0.7228986084255429,0.5225823980635863,53.80627657373047,2.1727912548549337,4.721021837174078,9.773510771506505,93.09495308334132,8666.670289589523,0.7414148209927011,4.2453088534594966e-14,1.8022647261261582e-27,4.925910420645575e-15,4.3333158196181594e-14,1.8777625992553e-27,N
-0.1650664161511791,80.55514915296193,6489.132055055944,3655.6959160414353,6043.940319152259,36529214.58147431,-56.40936453165903,0.1557118567795512,0.0242461823417354,11.086820149370649,7.751011682845763,60.078182107611504,-21.74514335787615,0.0348162036912296,0.0012121680394691,2.513896624423621,1.702376378085678,2.8980853326641114,-18.77774623799942,0.0434668840678078,0.0018893700105642,3.138233143979124,2.150947571833916,4.626575456778218,32.804984490243754,0.0347378140530266,0.0012067157251826,0.5484052971764394,1.291105853122814,1.6669543239679898,1.5526688678652023,0.0220447396129174,0.0004859705446013,0.1698446468151644,0.5510253266795925,0.3036289106423516,55.310487161045366,2.0140515158772274,4.056403508607358,16.18543541870256,101.98079679230416,10400.082914393231,0.7414148209927011,4.245297132348085e-14,1.802254774192288e-27,4.722211173534051e-15,4.3342428129898746e-14,1.8785660761954377e-27,N
-0.0521347165187625,81.88217534828156,6704.690639766728,3895.414084822851,6031.41998299548,36378027.01127719,-56.486956825629406,0.2265847189754651,0.0513406348731905,15.801118752020988,11.265172561580677,126.90411284219014,-21.63998297392187,0.2126243987109348,0.0452091349271865,14.101302849219207,10.11710704835851,102.35585502794544,-18.77710437820228,0.0503493170755543,0.0025350537299747,3.552410276461635,2.4860694097847515,6.180541110267503,32.92482700269054,0.0391412190250548,0.0015320350267673,0.5413215214497965,1.5197295802086148,2.3095779969610524,1.6444048721719453,0.0362283886837887,0.0013124961466236,0.1833303776202379,0.6193887672137693,0.3836424449505929,58.65506962786286,2.693623049822678,7.255605134536026,10.535350305438495,74.22327782330842,5509.094970836027,0.7414148209927011,4.2452943344005774e-14,1.8022523985693635e-27,4.844501795219828e-15,4.333636919201935e-14,1.8780408947470034e-27,N
-0.0005214427333076,100.56953304590029,10114.23097707043,4762.540858616886,7422.03777412767,55086644.720578015,-57.02824897628389,0.3111178247389065,0.0967943008702689,20.54309076840853,14.187139116023175,201.27491629739484,-21.08074914280396,0.3382867479336771,0.1144379238275432,20.584181432076367,15.164597493225404,229.9650171315382,-18.5322629125296,0.3629217620499851,0.131712205369466,16.349596993114137,14.345283122777149,205.78714787263485,33.04414989622278,0.0394382625730255,0.0015553765547789,0.5959262548912228,1.6157367650902748,2.610605294064386,1.6201208588849996,0.0175512911679103,0.0003080478216607,0.1671491303732844,0.5147623855742174,0.2649803136020592,58.779486023872245,2.148892543997164,4.617739165646605,11.414165990399104,90.56620481575834,8202.23745472989,0.7414148209927011,4.2453088534594966e-14,1.8022647261261582e-27,4.925910420645575e-15,4.3333158196181594e-14,1.8777625992553e-27,N
0.0632220020716416,92.15087869187222,8491.78444368415,4230.1609623822815,6884.687789471077,47398925.95849215,-57.33313024175939,0.0346574295655289,0.0012011374240895,2.553192580718332,1.639495863673604,2.687946687002857,-20.759806467702607,0.0088452234123772,7.823797721486663e-05,0.6638405890846315,0.4006206728461897,0.1604969235117337,-17.835365465796873,0.1482993913024287,0.0219927094606708,9.526086762025558,8.441760219281576,71.26331559984492,33.167557417760186,0.0417584842862057,0.0017437710098812,0.57829186979536,1.522436743374102,2.3178136375755414,1.606375676304762,0.009509383328909,9.04283712961335e-05,0.1455436694748625,0.4610442537866162,0.2125618039496577,59.373790362269474,1.6956641261183143,2.875276828604586,4.78308256836995,53.29803476040483,2840.6805093213216,0.7414148209927011,4.245297132348085e-14,1.802254774192288e-27,4.722211173534051e-15,4.3342428129898746e-14,1.8785660761954377e-27,N
-0.0014687733773287,117.31141865108762,13761.968945930748,5697.964725347899,8564.4110544039,73349136.70879571,-45.11039605688338,13.642769037264047,186.12514700413064,111.2884175714948,457.0976132890733,208938.2280745672,-33.793552387112484,14.315558166577784,204.9352056206719,79.48167803352835,349.71286689277326,122299.08927036256,1.1140799817502207,20.983495011944395,440.3070629162953,123.33787256061908,642.1513545934341,412358.3622061824,33.344664969270305,0.0851793726529417,0.0072555255255487,0.7728061076063544,2.7082379386739266,7.334552732472798,1.4459762987928884,0.0932671804142064,0.0086987669424161,0.6333165043987998,2.4928999654792547,6.214550237886471,60.44929197087336,2.3484701689462373,5.515312134430369,10.148688403173058,90.90451580604446,8263.630993931387,0.7414148209927011,4.2452943344005774e-14,1.8022523985693635e-27,4.844501795219828e-15,4.333636919201935e-14,1.8780408947470034e-27,N
0.025088334967756,82.01349302132367,6726.213037558707,3464.7807173080314,6301.836451945763,39713142.66707236,-35.484054125352685,2.488218409538661,6.191230853567104,58.33789845089541,198.88134103348125,39553.78781127587,-41.99366788076156,1.031630504619506,1.0642614980614964,29.79996722772051,75.07173946986589,5635.76606703142,31.380800059294675,1.608479110990405,2.587205050492484,44.02067337487192,131.9225313334625,17403.55427342839,33.57358653434229,0.0201115068728195,0.0004044727086954,0.471539947293788,1.008073876525119,1.0162129405323808,1.2847580356305348,0.0068660766754503,4.714300891316306e-05,0.1167416466011442,0.2983696059690362,0.0890244217661179,56.56992281408616,1.5095842406903164,2.278844579740559,10.277991176063948,57.72031376969634,3331.634621672197,0.7414148209927011,4.2453088534594966e-14,1.8022647261261582e-27,4.925910420645575e-15,4.3333158196181594e-14,1.8777625992553e-27,N
-0.0233881163443113,57.36187926901765,3290.3851932733564,2352.701142135709,4445.73626301896,19764570.920321785,46.33720056281251,6.995976841449665,48.94369196610003,363.4228032546093,432.0283994550183,186648.53793566485,3.0441935866000858,10.52595309397543,110.79568853657092,201.61118387387864,677.2573359197576,458677.49905712734,-36.50359753247902,13.565042390447855,184.01037505464728,384.40335178144704,911.0147525533008,829947.879369752,34.68336858727524,0.1187854662544041,0.0141099869932761,0.9505172427456584,3.300524768648604,10.89346374846292,1.0495979915351543,0.0902680309182911,0.0081483174058655,2.9980169122228943,6.983341666797557,48.767060835230886,75.90381479199426,2.527011326873789,6.3857862461484265,9.678271341175655,51.02066238935112,2603.1079906481486,0.783839167891673,0.0260268213615356,0.0006773954301852,0.808780843870077,1.6673659394416958,2.780109176010289,N
0.0052761974944171,47.71542359958956,2276.7616492882685,1170.609035434702,4016.9290645002766,16135719.109227069,48.44370582989655,0.9532268850973472,0.908641494472391,19.19152486712766,30.161729111649056,909.7299030044982,5.255791196861508,0.4523375769751104,0.2046092835437139,8.009292019575563,12.600727845151605,158.77834222757895,-37.89477244310694,1.1232009722116678,1.2615804239772357,17.09313082254925,33.88481901507772,1148.1809596845724,34.84555228356878,0.0250863858771011,0.0006293267563748,0.5594663296036715,1.277616852396925,1.632304821528626,1.021011124738875,0.0150146166832594,0.0002254387141452,0.3073216168907874,0.911106563292465,0.8301151696746065,76.53485896848885,0.4666347227819906,0.2177479645058252,2.1329517578701624,19.22644799860544,369.6563026430792,0.7629924721644358,0.0231457740284496,0.000535726855376,0.8839621850072742,1.7399327715157225,3.027366049394383,N
0.0093898892920267,52.67797021470406,2774.968545941248,1457.568447287888,4383.17857000306,19212254.376534067,49.3311806886478,0.2389648721586829,0.0571042101258156,13.334522978317455,14.118083823290076,199.32029084144492,4.829177553802968,0.2613339357446161,0.0682954259717711,13.056517252667794,13.336060830988018,177.85051848781282,-36.93829000779685,0.4258463111381743,0.1813450807099907,18.525820688333297,21.09671998705245,445.0715942120983,34.763502933717184,0.0222919595625642,0.000496931461139,0.5344559886414612,1.1864831049878122,1.4077421584215195,1.0148751045111344,0.0097448105415542,9.49613324907861e-05,0.3776247572526159,0.6064300968077404,0.3677574623142454,77.50877058308836,0.4387418615906497,0.1924944211120288,1.578663555839603,19.125168130528994,365.772056021002,0.7546817467349841,0.027126575878484,0.0007358511188911,0.9615930512563708,2.102638109426683,4.421087019213416,N
-0.0150261600788904,49.18404428341849,2419.070212073271,1399.259569755062,4079.4998167652257,16642318.754987508,54.892870129049456,1.2982917044004003,1.6855613497148965,25.08818831116404,64.58395692273325,4171.087491797463,1.9524505387438773,0.8798285206124568,0.7740982256831042,14.564294507320032,37.892228049158376,1435.8209465294246,-27.406958321087533,2.1604162203025514,4.667398244946363,35.13724808298249,110.14988456317438,12132.997069280642,34.678303303324746,0.0383606808497638,0.0014715418352574,0.5848257676747685,1.5092623035932728,2.2778727010476727,1.0493163596434276,0.0058372325128044,3.407328340854114e-05,0.201489488292879,0.4232937648981512,0.1791776114016512,76.77774341859809,0.90726276049209,0.8231257165757272,2.2936968797251853,31.442482335544515,988.6296954210288,0.7603694081486732,0.0187039352733051,0.0003498371947079,0.6356523754232516,1.3790996650061689,1.901915886020127,N
0.0066573893101287,51.65115215509597,2667.841518948874,1154.638348658459,4379.483199771223,19179873.097078387,56.17818171691859,0.3092797052776688,0.0956539360966417,13.505611049297697,14.83131076450074,219.96777899319557,1.1822418789695937,0.591878901616143,0.3503206341783318,7.228664397852766,28.779651075274845,828.2683160145685,-25.2406700079166,0.4814981694675725,0.2318404872006232,21.884100048232977,21.81229707181954,475.7763035493072,34.59880531028125,0.0171768576455016,0.0002950444385738,0.5350426222270587,1.1522805549535564,1.327750477324076,1.0681768269514496,0.0068466602031525,4.68767559374328e-05,0.1218839499474321,0.2453068159286637,0.0601754339410593,76.67646416799539,0.3200835190579747,0.1024534591725368,1.937863777111805,10.341921967722936,106.95534998647024,0.7623826292412498,0.0295018307905788,0.0008703580199959,0.9881810025777574,2.248465021055157,5.055594950908568,N
-0.0066939208267781,38.7459373704505,1501.2476627148724,834.6667735917156,3293.393287577612,10846439.346661272,55.35897330078869,0.0064323225054142,4.137477281365913e-05,0.4779353975383396,0.2995143809847475,0.0897088644166764,2.963471080506086,0.0295217103067549,0.0008715313794359,2.145620462515501,1.439431772692456,2.0719638282365462,-26.6858491822922,0.0464940145729355,0.0021616933911083,3.317824214601974,2.265829388167266,5.133982816282448,34.52272871591288,0.0266536848152327,0.0007104189142297,0.564981970873256,1.3473944686230124,1.8154718540758896,1.0779682462700733,0.0028026461067245,7.854825199538e-06,0.1054491794263484,0.155622374561987,0.0242183234643113,77.80639345573424,0.3797028552226177,0.1441742582642081,1.284438873964253,17.258061402461383,297.8406833711274,0.7559292514871995,0.0205675486791707,0.00042302405867,0.728166792316136,1.5820367521461645,2.5028402851411844,N
0.0133721013122553,42.126897982888046,1774.675533660657,890.3683694570283,3585.070972369611,12852733.876927188,55.3589733007887,4.6827868985872295e-12,2.192849313758021e-23,7.816373940136746e-14,7.436161706046687e-13,5.529650091847517e-25,2.960895773521643,0.0439573088113144,0.0019322449979332,3.185349679987103,2.154017885028704,4.639793049023529,-26.68938894152703,0.0251814138785025,0.0006341036049204,1.8239297070695475,1.2244285313634435,1.4992252284168397,34.49275821239045,0.0154619769904752,0.0002390727324539,0.5241879123448224,1.1039166918169163,1.218632062472005,1.0848860115077834,0.0040791372143003,1.663936041309021e-05,0.1061245937788799,0.1492493403788615,0.0222753656035252,77.57939903216251,0.581148828751226,0.3377339611589217,1.129042569353922,12.892336724046777,166.21234620620513,0.7575426517583291,0.0168711608984455,0.0002846360700612,0.5964398204885606,1.2705669365838588,1.6143403403400916,N
0.0015038729808288,47.83151528948077,2287.8538548878323,1136.5869040900654,4037.264489097416,16299504.55492702,55.359423813266645,0.036528317057665,0.0013343179470653,2.5703477765311025,1.9034626526397749,3.623170069994449,2.8880279313138866,0.2532977491459746,0.064159749722417,8.80324303490669,11.737808733558762,137.77615386560834,-26.689646377228783,0.08039506299651,0.0064633661542128,5.782546381899586,4.017652260815876,16.141529688838915,34.60383768406436,0.0652346875441397,0.0042555644589815,0.7023261299754838,2.1793435807214045,4.749538442831593,1.0923098682311452,0.0037613683504995,1.4147891868139786e-05,0.1046868159640693,0.1424706491069734,0.0202978858569623,77.40161267840668,0.6621080093052392,0.4383870159861466,1.791093858514148,20.673663753105917,427.4003729764853,0.757156450322012,0.0275079008329178,0.0007566846082336,0.9691911862395632,2.074145621040836,4.302080057282875,N
0.0005207097181578,53.02515702349913,2811.667277366739,1539.059023251284,4387.509454236991,19250239.211018976,57.31096341945178,1.393711228235896,1.9424309877108088,11.794038746736216,33.89497474972535,1148.869313284519,2.7223990652560333,0.4377894071606788,0.1916595650220986,19.57897854148717,24.42565529282022,596.6126364836765,-21.75029192699141,3.5397481350954902,12.529816859912,30.26579621935205,92.07561004362574,8477.917964905833,34.84135833918978,0.0676907448489133,0.0045820369382006,0.7183741063496164,2.149606162701289,4.620806654723361,1.1019368713559257,0.0047393288866634,2.246123829596287e-05,0.1297181769306315,0.2080874086390723,0.0433003696341242,77.88619868890689,0.7545598282619703,0.5693605344267341,2.7036716034884,31.79701116884958,1011.0499192719448,0.7549420483800307,0.0265635675804634,0.0007056231226018,0.7801142973195623,2.0609460753652065,4.247498725563247,N
-0.0121461401792623,49.17762856767092,2418.439151539804,1397.3859573957477,4079.547621093893,16642708.792772844,58.16328480638278,1.0453523609608668,1.0927615585664583,23.37684728525062,78.01979507164562,6087.088423021577,2.984901485386458,0.6215668173686869,0.3863453084538386,27.05988807055988,44.064405660830325,1941.6718462422157,-18.988246061885167,2.3881978712495373,5.703489072240822,48.74998703664676,174.66822024000388,30508.9871618105,34.992054592030385,0.0292274636850265,0.0008542446334595,0.5744955748872177,1.4082978023972976,1.983302700237058,1.1159046851004362,0.0055027152221728,3.027987481633252e-05,0.142150430332735,0.2733093136524558,0.0746979809291764,77.2455236551863,0.6097828601741352,0.3718351365621489,4.191010660110936,32.317718108064945,1044.4349037123486,0.7603625045511234,0.0208765589654475,0.0004358307142378,0.7236198206989598,1.6181672140282906,2.6184651325560795,N
0.0112003195733483,52.91236207324311,2799.718060169976,1255.8596331760623,4466.528021906896,19949872.57047953,58.72837221168757,0.4212844528399865,0.1774805902046868,16.178268254045236,13.459853375453354,181.16765288870303,2.7491423899741507,0.4000036108917326,0.1600028887264246,13.335501253992495,14.701973416207602,216.14802233087505,-17.52647014998115,0.4534915988817531,0.2056546302563288,12.340418060754573,15.360536400957615,235.94607852514392,35.06939342516527,0.0227660189451359,0.0005182916186102,0.4878960466483103,1.1024988646244336,1.215503746498165,1.1502094339160958,0.0085844598983901,7.369295174706889e-05,0.1346288420649379,0.3140345163560629,0.0986176774629863,77.50681391133266,0.4025062171253466,0.1620112548245566,2.347706185024954,24.916369424006923,620.8254652735872,0.7581459146572683,0.0205410920637012,0.0004219364631694,0.712538243972638,1.632854821484604,2.6662148680455178,N
-0.0016047764012164,49.07296230187504,2408.155629081249,1377.527046267807,4076.610833321702,16618755.886355862,58.82901343774277,0.5032857409997116,0.2532965370936287,9.234559080646502,15.235636524184924,232.12462029707768,2.028204591633588,0.2245345965256779,0.050415785036949,10.985715376761778,11.68191156121384,136.46705772402157,-17.414886178274344,1.304090724966673,1.7006526189441034,23.200395774956995,39.17762479431989,1534.8862845245087,35.13768468253396,0.020040405154307,0.0004016178387487,0.5349493177261921,1.1972063640603403,1.43330307814658,1.1553913936323383,0.0036139351131572,1.3060527002110552e-05,0.1040501568450408,0.1445295071128091,0.0208887784262715,77.81354640240946,0.7320773203870996,0.5359372030251561,3.1422256993379127,27.494130276791847,755.9271996772021,0.7538619149107222,0.0243712428461096,0.000593957477864,0.7314944174741084,1.8774245135430272,3.524722804052272,N
-0.0095071110143538,49.47259890892648,2447.538042803513,1468.4834360745608,4081.9969783535,16662699.331287105,58.75408360444506,0.4908556811363785,0.2409392997038581,6.09744163315601,11.686288969268553,136.56934987324786,2.37003871486722,0.4262132918161048,0.1816577701207201,16.70398971249108,15.824749563464822,250.4226987463801,-17.66249377727512,1.3819783440295983,1.9098641433667911,20.60909513756688,37.82378546145427,1430.6387466341196,35.185710603673094,0.0263509390107449,0.0006943719867479,0.5342377440566569,1.273136863387342,1.62087747291576,1.1703306616650029,0.0065953707771021,4.349891568745239e-05,0.1741582414882833,0.2818666713970301,0.0794488204444413,78.72382943874145,0.4870227337338972,0.2371911431736386,2.133222026229417,32.02428039445801,1025.554534782868,0.7438272621637609,0.0338763606726258,0.0011476078124218,0.9912654625846457,2.7368638040402047,7.49042348186542,N
0.0095622450715803,51.50546512761991,2652.8129380124706,1527.991799050283,4250.028808374239,18062744.87201095,58.32598412219342,0.0678385507913926,0.0046020689734763,4.221967867850694,4.183535058230503,17.5019655834437,3.0159184086833406,0.283259639025602,0.0802360231009143,12.143725987001885,19.892225135551055,395.70062084344926,-18.846036200631683,0.3981041020293946,0.1584868760526306,18.208144743285857,21.71373349876541,471.4862224554072,35.27523274059968,0.0446732549843387,0.0019956997108957,0.5755140184447523,1.3497534802331854,1.821834457401596,2.3095020665211776,1.5283535527599683,2.3358645822340174,9.860079721646544,41.11300799748349,1690.2794266011415,79.62167251847738,0.7192617749153742,0.5173375008544145,1.9888800531123436,17.10189758536835,292.4749010204277,0.7378909550200397,0.0286686409303358,0.0008218909727925,0.949255295310156,2.256050163584021,5.089762340607488,N
-0.0456944563240111,59.95741670518933,3594.8918179597167,1950.139948564627,4882.4170844831015,23837996.586852465,58.16615185389922,0.4986200633968286,0.2486219676218573,11.928007502331322,22.962617037683373,527.2817812193067,3.1946793574992807,0.6852282657577112,0.4695377761933206,11.687612387066,34.45883417121336,1187.4112524391817,-19.592525268831483,1.0747943512391755,1.1551828974556402,27.669118589965173,53.595065317270105,2872.431026362449,35.37067573281239,0.0214196482039156,0.0004588013291795,0.5248613944903329,1.2139718368402883,1.473727620641384,4.290553275929754,0.6994083274004439,0.4891720084370864,5.08119722575908,21.91436939312301,480.23958589824673,79.15709455248722,0.7388207407677068,0.5458560869885429,3.855234555156749,34.078956464724335,1161.3752737245768,0.738845545052264,0.0280596942463472,0.0007873464411984,0.8936241655989143,2.2326716459429723,4.984822678597701,N
0.0265679722118429,68.4464871321939,4684.921600737584,2237.8985026459864,5569.037902896464,31014183.16389745,55.436377875332575,1.508018926577255,2.2741210829152165,31.42169189201673,73.39702619116875,5387.123453707111,2.600968357120067,2.494159081579572,6.220829524225853,37.54452418117823,108.24824007426209,11717.681479175078,-25.63982784904608,3.2835703005278107,10.781833918508298,48.87714711739772,156.91857545345198,24623.439322340702,35.446667061137305,0.0245964016950922,0.0006049829763463,0.6428321606007009,1.387831991608577,1.9260776369322292,2.9902157227052304,0.243774293256712,0.0594259060528094,1.9269736771690684,7.550155200408595,57.00484355025695,79.28558527483698,0.8841019360124796,0.7816362332610145,6.59253252871536,36.41627296374775,1326.1449365701856,0.7389020298296927,0.0297295647424824,0.0008838470197774,0.97682806194959,2.192691642970952,4.807896641154652,N
