pc_timestamp_iso,ms,ax,ay,az,gx,gy,gz,mx,my,mz,press,baro_t,prox,cr,cg,cb,light,gesture,mic,p2p
2026-05-27T23:32:59.497,672449,0.9,-0.3,0.05,42.4,7.1,6.7,-8.9,49.4,-24.3,101.12,35.68,0,1,0,0,1,NONE,32,128
2026-05-27T23:32:59.542,672486,1.06,0.02,-0.3,4.5,32.8,16.5,-8.0,49.1,-23.0,101.119,35.69,0,1,0,0,1,NONE,69,86
2026-05-27T23:32:59.586,672535,0.91,-0.15,-0.05,19.5,7.1,10.6,-7.8,49.8,-23.3,101.125,35.7,0,0,0,0,0,NONE,32,125
2026-05-27T23:32:59.642,672587,0.91,-0.03,-0.13,12.7,19.4,4.6,-7.5,50.5,-23.5,101.125,35.7,0,0,0,0,0,NONE,59,221
2026-05-27T23:32:59.691,672635,0.91,-0.09,-0.12,-4.6,19.1,-4.7,-7.1,50.3,-22.5,101.125,35.71,0,0,0,0,0,NONE,56,344
2026-05-27T23:32:59.738,672687,0.9,-0.07,-0.12,-17.2,11.0,-12.8,-7.4,49.7,-23.7,101.126,35.72,0,0,0,0,0,NONE,74,481
2026-05-27T23:32:59.790,672735,0.89,0.02,-0.07,4.7,3.3,-8.4,-7.8,50.3,-22.4,101.128,35.72,0,0,0,0,0,NONE,70,427
2026-05-27T23:32:59.838,672787,1.11,-0.02,-0.6,-18.4,59.6,-3.5,-8.3,50.6,-23.2,101.123,35.72,0,0,0,0,0,NONE,56,267
2026-05-27T23:32:59.889,672839,1.02,-0.48,-0.23,17.8,-44.3,2.1,-6.7,50.4,-23.0,101.123,35.73,0,0,0,0,0,NONE,144,150
2026-05-27T23:32:59.935,672885,0.9,-0.14,-0.37,-43.1,20.6,0.7,-7.5,50.5,-23.2,101.124,35.74,0,0,0,0,0,NONE,58,329
2026-05-27T23:32:59.984,672937,1.02,-0.31,-0.35,11.8,-12.5,-3.5,-7.1,49.5,-24.0,101.125,35.74,0,0,0,0,0,NONE,77,432
2026-05-27T23:33:00.027,672985,0.77,-0.32,-0.26,-12.5,-2.1,-9.9,-7.3,50.3,-22.6,101.121,35.74,0,0,0,0,0,NONE,65,337
2026-05-27T23:33:00.092,673037,0.88,-0.31,-0.29,-11.1,-2.5,-3.7,-8.0,50.2,-23.8,101.122,35.74,0,0,0,0,0,NONE,73,333
2026-05-27T23:33:00.142,673087,0.87,-0.32,-0.29,-13.2,0.1,-4.2,-8.4,49.4,-24.0,101.121,35.74,0,0,0,0,0,NONE,41,293
2026-05-27T23:33:00.188,673135,0.87,-0.32,-0.29,-26.1,5.6,-1.6,-8.4,49.3,-24.0,101.121,35.75,0,0,0,0,0,NONE,56,278
2026-05-27T23:33:00.236,673187,0.86,-0.35,-0.23,-24.5,4.6,1.5,-9.0,48.8,-26.1,101.124,35.75,0,0,0,0,0,NONE,69,414
2026-05-27T23:33:00.289,673239,0.87,-0.33,-0.2,-43.2,11.0,7.7,-8.7,47.7,-26.7,101.12,35.75,0,0,0,0,0,NONE,65,378
2026-05-27T23:33:00.334,673285,0.9,-0.26,-0.23,-38.0,9.3,13.4,-8.5,46.6,-27.0,101.122,35.76,0,0,0,0,0,NONE,46,271
2026-05-27T23:33:00.382,673337,0.89,-0.24,-0.11,-27.5,1.9,20.6,-8.0,45.6,-28.2,101.123,35.76,0,0,0,0,0,NONE,32,168
2026-05-27T23:33:00.429,673385,0.97,-0.3,-0.2,-20.0,5.3,23.5,-7.6,44.3,-28.1,101.124,35.76,0,0,0,0,0,NONE,59,339
2026-05-27T23:33:00.492,673437,0.82,-0.2,-0.08,-3.1,-8.6,25.5,-7.3,42.9,-28.6,101.118,35.76,0,0,0,0,0,NONE,35,209
2026-05-27T23:33:00.543,673488,1.06,-0.27,-0.22,-0.2,8.3,22.6,-8.1,43.3,-30.7,101.122,35.76,0,0,0,0,0,NONE,43,250
2026-05-27T23:33:00.588,673537,0.94,-0.29,-0.46,-48.5,14.3,11.0,-7.4,42.8,-30.7,101.125,35.76,0,0,0,0,0,NONE,39,216
2026-05-27T23:33:00.640,673585,0.92,0.01,-0.21,18.2,-6.1,18.6,-7.4,41.6,-30.5,101.123,35.77,0,0,0,0,0,NONE,50,243
2026-05-27T23:33:00.688,673637,0.88,-0.22,-0.15,-17.9,12.6,15.8,-7.4,41.1,-31.4,101.123,35.76,0,0,0,0,0,NONE,56,331
2026-05-27T23:33:00.737,673687,1.02,-0.11,-0.27,-56.4,24.3,12.9,-7.1,40.9,-31.4,101.123,35.77,0,0,0,0,0,NONE,54,305
2026-05-27T23:33:00.790,673735,0.99,-0.11,-0.2,-22.0,-2.6,14.3,-6.7,39.1,-32.7,101.126,35.77,0,0,0,0,0,NONE,50,296
2026-05-27T23:33:00.833,673787,0.97,-0.1,-0.18,-58.3,-1.1,9.8,-6.7,38.2,-33.0,101.126,35.78,0,0,0,0,0,NONE,70,401
2026-05-27T23:33:00.895,673839,0.92,-0.07,-0.09,-41.6,11.7,2.9,-7.3,36.6,-33.6,101.123,35.77,0,0,0,0,0,NONE,72,416
2026-05-27T23:33:00.941,673885,0.91,-0.15,-0.03,-40.6,19.2,-2.9,-6.8,35.0,-33.3,101.121,35.77,0,0,0,0,0,NONE,129,652
2026-05-27T23:33:00.992,673937,0.88,-0.18,-0.04,-52.9,22.3,-6.2,-6.5,32.6,-35.1,101.126,35.77,0,0,0,0,0,NONE,112,533
2026-05-27T23:33:01.038,673985,1.4,-0.16,-0.61,-40.8,52.4,0.4,-5.7,31.2,-35.0,101.122,35.77,0,0,0,0,0,NONE,55,240
2026-05-27T23:33:01.088,674037,0.88,-0.39,-0.21,-29.7,7.4,5.6,-4.7,29.3,-34.2,101.124,35.78,0,0,0,0,0,NONE,114,249
2026-05-27T23:33:01.136,674088,0.97,-0.16,-0.41,-60.7,22.5,4.3,-3.7,27.1,-36.3,101.121,35.78,0,0,0,0,0,NONE,59,192
2026-05-27T23:33:01.184,674137,0.9,-0.38,-0.28,-54.7,9.1,-2.9,-3.2,22.4,-35.0,101.124,35.77,0,0,0,0,0,NONE,167,487
2026-05-27T23:33:01.235,674185,0.93,-0.28,-0.23,-49.4,9.2,0.4,-3.0,20.1,-34.0,101.123,35.77,0,0,0,0,0,NONE,91,504
2026-05-27T23:33:01.294,674237,0.85,-0.33,-0.25,-45.8,16.9,2.5,-3.1,18.2,-35.0,101.127,35.78,0,0,0,0,0,NONE,67,370
2026-05-27T23:33:01.342,674287,0.9,-0.33,-0.25,-47.7,19.0,7.1,-2.3,16.1,-33.0,101.123,35.78,0,0,0,0,0,NONE,51,316
2026-05-27T23:33:01.395,674335,0.86,-0.32,-0.26,-49.5,13.9,9.7,-2.1,13.5,-33.3,101.123,35.78,0,0,0,0,0,NONE,70,439
2026-05-27T23:33:01.438,674387,0.87,-0.28,-0.22,-26.7,11.0,10.6,-2.1,12.4,-32.3,101.128,35.78,0,0,0,0,0,NONE,111,912
2026-05-27T23:33:01.489,674439,0.86,-0.32,-0.22,-33.9,15.4,12.1,-1.3,10.3,-30.9,101.122,35.78,0,0,0,0,0,NONE,235,1427
2026-05-27T23:33:01.539,674485,0.88,-0.3,-0.21,-21.7,4.1,10.4,-1.5,8.9,-30.0,101.121,35.79,0,0,0,0,0,NONE,309,1570
2026-05-27T23:33:01.585,674537,0.94,-0.34,-0.13,-27.6,9.3,12.3,-1.3,7.8,-29.2,101.121,35.78,0,0,0,0,0,NONE,80,559
2026-05-27T23:33:01.639,674585,0.93,-0.25,-0.16,-18.6,1.5,16.5,-1.5,6.3,-27.6,101.125,35.79,0,0,0,0,0,NONE,321,1554
2026-05-27T23:33:01.694,674637,0.89,-0.21,-0.14,13.7,0.2,20.0,-2.5,6.3,-29.1,101.118,35.78,0,0,0,0,0,NONE,79,416
2026-05-27T23:33:01.744,674688,0.93,-0.31,-0.15,8.4,-2.8,25.9,-3.5,5.1,-27.8,101.121,35.79,0,0,0,0,0,NONE,234,1097
2026-05-27T23:33:01.793,674737,0.9,-0.35,-0.23,8.6,1.5,11.4,-4.1,4.8,-29.5,101.119,35.79,0,0,0,0,0,NONE,289,1425
2026-05-27T23:33:01.842,674785,1.1,-0.23,-0.29,-31.4,0.2,8.4,-4.1,3.6,-27.7,101.124,35.79,0,0,0,0,0,NONE,427,2010
2026-05-27T23:33:01.891,674837,0.95,-0.16,-0.14,16.1,-2.5,10.5,-5.3,4.1,-27.7,101.124,35.79,0,0,0,0,0,NONE,112,510
2026-05-27T23:33:01.942,674887,0.87,-0.09,-0.16,-27.5,11.8,8.9,-4.8,3.4,-26.9,101.126,35.79,0,0,0,0,0,NONE,612,2376
2026-05-27T23:33:01.983,674935,1.08,-0.14,-0.22,-19.1,18.1,10.3,-4.6,2.9,-25.0,101.124,35.79,0,0,0,0,0,NONE,482,3153
2026-05-27T23:33:02.042,674987,0.94,-0.13,-0.15,-24.8,8.1,10.6,-5.0,2.0,-24.3,101.124,35.79,0,0,0,0,0,NONE,102,437
2026-05-27T23:33:02.095,675039,0.95,-0.09,-0.11,-17.7,13.7,8.2,-4.8,1.3,-23.3,101.122,35.79,0,0,0,0,0,NONE,82,472
2026-05-27T23:33:02.133,675085,0.95,-0.03,-0.21,-8.1,5.4,5.6,-4.6,0.7,-21.5,101.125,35.79,0,0,0,0,0,NONE,126,674
2026-05-27T23:33:02.193,675137,0.95,0.03,-0.13,20.4,-2.0,4.1,-5.5,-0.4,-21.4,101.123,35.8,0,0,0,0,0,NONE,143,454
2026-05-27T23:33:02.240,675185,0.9,-0.21,0.04,-16.4,-6.9,-11.1,-5.4,-0.2,-20.4,101.121,35.79,0,0,0,0,0,NONE,97,477
2026-05-27T23:33:02.292,675237,1.0,-0.34,-0.2,-41.7,8.1,-19.8,-4.8,-0.9,-19.7,101.127,35.79,0,0,0,0,0,NONE,124,496
2026-05-27T23:33:02.336,675288,0.92,-0.32,-0.47,-21.7,-19.0,-2.0,-4.8,-2.1,-18.4,101.123,35.79,0,0,0,0,0,NONE,60,370
2026-05-27T23:33:02.383,675337,1.03,-0.11,-0.23,10.2,9.8,5.2,-5.0,-2.6,-17.7,101.12,35.79,0,0,0,0,0,NONE,107,224
2026-05-27T23:33:02.436,675385,0.91,-0.34,-0.23,-21.9,-3.5,-4.9,-5.5,-2.7,-17.3,101.124,35.8,0,0,0,0,0,NONE,35,195
2026-05-27T23:33:02.480,675437,0.94,-0.29,-0.12,-9.5,-0.8,-7.3,-5.0,-3.5,-16.0,101.12,35.79,0,0,0,0,0,NONE,42,175
2026-05-27T23:33:02.533,675487,0.88,-0.28,-0.18,1.3,-2.0,-3.8,-4.5,-3.6,-14.7,101.125,35.79,0,0,0,0,0,NONE,41,171
2026-05-27T23:33:02.580,675535,0.84,-0.3,-0.16,-7.1,7.7,-4.1,-4.8,-3.6,-15.4,101.123,35.79,0,0,0,0,0,NONE,104,476
2026-05-27T23:33:02.640,675587,0.91,-0.3,-0.17,-13.4,9.8,-3.0,-4.3,-3.5,-14.8,101.122,35.79,0,0,0,0,0,NONE,172,863
2026-05-27T23:33:02.692,675639,0.89,-0.33,-0.18,-15.1,10.0,1.8,-4.1,-3.4,-13.2,101.122,35.79,0,0,0,0,0,NONE,180,951
2026-05-27T23:33:02.738,675685,0.91,-0.32,-0.29,-17.5,12.4,3.1,-3.4,-3.6,-12.0,101.122,35.79,0,0,0,0,0,NONE,350,2302
2026-05-27T23:33:02.785,675739,0.9,-0.24,-0.13,-21.5,-15.5,5.1,-4.0,-3.5,-11.1,101.121,35.79,0,0,0,0,0,NONE,147,1060
2026-05-27T23:33:02.837,675785,0.89,-0.33,-0.07,-31.5,12.1,8.5,-3.9,-3.6,-10.4,101.122,35.8,0,0,0,0,0,NONE,97,643
2026-05-27T23:33:02.886,675837,0.88,-0.28,-0.08,-28.5,16.2,10.9,-3.6,-3.4,-9.7,101.125,35.8,0,0,0,0,0,NONE,156,899
2026-05-27T23:33:02.944,675889,0.91,-0.36,0.0,-39.3,31.1,16.7,-4.0,-3.5,-7.8,101.123,35.79,0,0,0,0,0,NONE,273,1346
2026-05-27T23:33:02.992,675937,0.95,-0.26,-0.15,-35.3,31.2,22.6,-3.4,-3.6,-4.7,101.123,35.79,0,0,0,0,0,NONE,143,536
2026-05-27T23:33:03.040,675985,0.91,-0.3,-0.14,-34.4,16.8,25.0,-3.7,-3.9,-3.9,101.121,35.79,0,0,0,0,0,NONE,126,505
2026-05-27T23:33:03.088,676037,1.24,-0.6,-0.32,-49.9,33.4,20.1,-4.1,-3.6,-1.7,101.122,35.8,0,0,0,0,0,NONE,102,307
2026-05-27T23:33:03.140,676087,0.82,-0.06,-0.24,-76.0,1.8,33.0,-4.4,-2.8,0.9,101.123,35.8,0,0,0,0,0,NONE,38,206
2026-05-27T23:33:03.191,676135,0.95,-0.24,-0.14,-13.5,13.1,30.5,-5.6,-3.1,1.9,101.124,35.79,0,0,0,0,0,NONE,64,381
2026-05-27T23:33:03.244,676187,0.86,-0.11,-0.19,-81.2,16.8,26.1,-6.1,-2.4,3.4,101.127,35.79,0,0,0,0,0,NONE,86,345
2026-05-27T23:33:03.285,676239,1.04,-0.11,-0.25,-68.7,18.5,12.6,-6.8,-2.0,5.9,101.123,35.79,0,0,0,0,0,NONE,75,439
2026-05-27T23:33:03.329,676285,0.91,-0.21,-0.15,-67.0,15.4,15.9,-7.4,-1.1,7.3,101.125,35.79,0,0,0,0,0,NONE,70,348
2026-05-27T23:33:03.393,676337,0.94,-0.15,-0.24,-81.5,26.6,18.1,-8.2,-0.4,9.3,101.124,35.8,0,0,0,0,0,NONE,51,333
2026-05-27T23:33:03.441,676385,0.93,-0.12,-0.22,-73.9,25.1,18.2,-8.5,0.7,12.2,101.125,35.79,0,0,0,0,0,NONE,94,697
2026-05-27T23:33:03.494,676437,0.94,-0.14,-0.21,-80.1,25.1,15.4,-9.5,2.6,15.1,101.126,35.8,0,1,0,0,1,NONE,85,439
2026-05-27T23:33:03.543,676489,0.96,-0.17,-0.22,-82.1,17.4,9.8,-9.8,3.5,16.3,101.119,35.8,0,1,0,0,1,NONE,111,730
2026-05-27T23:33:03.594,676537,0.93,-0.12,-0.24,-96.3,15.3,8.5,-9.3,5.1,18.9,101.125,35.79,0,0,0,0,0,NONE,92,539
2026-05-27T23:33:03.630,676585,0.93,-0.17,-0.15,-82.8,12.0,4.9,-10.1,7.2,21.6,101.124,35.79,0,0,0,0,0,NONE,75,381
2026-05-27T23:33:03.694,676637,1.14,-0.18,-0.41,-89.0,28.4,5.2,-10.4,9.6,23.8,101.123,35.79,0,1,0,0,1,NONE,262,1377
2026-05-27T23:33:03.742,676687,0.89,-0.32,-0.24,-61.5,1.7,4.0,-10.1,11.1,26.0,101.12,35.8,0,1,0,0,1,NONE,110,335
2026-05-27T23:33:03.791,676735,0.92,-0.3,-0.29,-88.1,17.9,3.9,-10.8,13.0,25.9,101.122,35.79,0,1,0,0,1,NONE,58,486
2026-05-27T23:33:03.843,676787,0.95,-0.27,-0.24,-85.8,12.5,-3.2,-11.3,15.4,27.8,101.121,35.79,0,1,0,0,1,NONE,185,1051
2026-05-27T23:33:03.892,676839,0.94,-0.28,-0.16,-53.3,6.1,2.3,-11.2,17.3,30.0,101.122,35.8,0,1,0,0,1,NONE,159,1053
2026-05-27T23:33:03.939,676885,0.85,-0.32,-0.18,-44.3,9.3,3.3,-11.2,19.1,28.3,101.119,35.8,0,1,0,0,1,NONE,106,425
2026-05-27T23:33:03.992,676937,0.89,-0.32,-0.21,-49.0,12.0,4.1,-11.4,21.2,29.4,101.124,35.8,0,1,0,1,2,NONE,61,371
2026-05-27T23:33:04.031,676985,0.88,-0.33,-0.15,-46.9,13.2,2.8,-11.9,22.2,29.2,101.125,35.8,0,1,0,1,2,NONE,75,403
2026-05-27T23:33:04.079,677037,0.85,-0.34,-0.11,-46.3,12.5,6.8,-12.0,23.9,30.4,101.121,35.79,0,1,1,1,3,NONE,68,400
2026-05-27T23:33:04.144,677089,0.92,-0.34,-0.13,-44.3,16.3,12.5,-12.8,25.7,30.9,101.123,35.8,0,1,1,1,3,NONE,44,243
2026-05-27T23:33:04.192,677137,0.86,-0.27,-0.12,-35.1,15.3,15.8,-13.2,26.8,32.7,101.121,35.79,0,1,0,1,2,NONE,53,244
2026-05-27T23:33:04.240,677185,0.94,-0.32,-0.15,-38.1,17.9,15.3,-13.6,27.8,31.1,101.123,35.79,0,1,0,1,2,NONE,51,288
2026-05-27T23:33:04.289,677237,0.9,-0.39,-0.05,-48.9,14.6,16.7,-14.0,29.0,31.9,101.121,35.79,0,1,0,1,2,NONE,60,332
2026-05-27T23:33:04.341,677287,0.97,-0.29,-0.15,-29.4,21.4,21.7,-14.4,30.6,33.2,101.125,35.8,0,1,0,1,2,NONE,93,323
2026-05-27T23:33:04.389,677335,1.07,-0.41,-0.19,-23.4,25.3,25.6,-14.7,31.5,32.1,101.127,35.8,0,1,1,1,3,NONE,54,356
2026-05-27T23:33:04.438,677387,0.94,-0.25,-0.32,-45.3,15.2,20.4,-15.5,32.7,32.4,101.126,35.8,0,1,1,1,3,NONE,77,259
2026-05-27T23:33:04.495,677439,0.82,-0.07,-0.2,-6.9,20.5,18.6,-16.3,34.4,33.3,101.124,35.79,0,1,1,1,3,NONE,73,504
2026-05-27T23:33:04.532,677485,0.95,-0.14,-0.27,-35.8,24.0,15.0,-16.7,35.4,31.8,101.124,35.8,0,1,1,1,3,NONE,131,284
2026-05-27T23:33:04.593,677537,1.04,-0.12,-0.26,-40.8,24.0,9.4,-17.4,36.2,31.4,101.123,35.81,0,1,0,1,2,NONE,56,271
2026-05-27T23:33:04.641,677585,0.95,-0.16,-0.21,-28.6,9.3,11.1,-17.9,37.5,31.2,101.122,35.8,0,1,0,1,2,NONE,61,239
2026-05-27T23:33:04.693,677637,0.94,-0.13,-0.21,-35.9,12.5,13.5,-18.3,39.1,30.6,101.121,35.8,0,1,0,1,2,NONE,53,250
2026-05-27T23:33:04.739,677686,0.92,-0.1,-0.22,-29.6,12.6,15.5,-18.3,39.1,30.6,101.122,35.8,0,1,0,1,2,NONE,69,409
2026-05-27T23:33:04.794,677735,0.98,-0.18,-0.17,-26.6,10.1,11.2,-19.5,42.1,30.6,101.125,35.8,0,1,0,1,2,NONE,81,283
2026-05-27T23:33:04.838,677787,0.92,-0.16,-0.16,-27.4,10.1,0.6,-19.4,42.8,30.5,101.124,35.8,0,1,0,1,2,NONE,88,257
2026-05-27T23:33:04.887,677835,0.93,-0.27,-0.17,-44.9,1.0,-10.2,-19.5,44.4,29.4,101.119,35.79,0,1,1,1,3,NONE,37,158
2026-05-27T23:33:04.935,677887,0.82,-0.27,-0.1,-54.3,-6.5,-18.8,-19.3,45.5,28.2,101.125,35.8,0,1,1,1,3,NONE,111,150
2026-05-27T23:33:04.995,677939,1.14,-0.04,-0.6,-13.7,25.5,0.5,-19.5,46.5,28.7,101.122,35.79,0,1,0,1,2,NONE,59,274
2026-05-27T23:33:05.033,677987,1.0,-0.36,-0.19,1.8,-2.9,-0.7,-18.9,46.0,27.8,101.123,35.8,0,1,0,1,2,NONE,58,281
2026-05-27T23:33:05.086,678035,1.02,-0.22,-0.32,-29.7,1.1,-2.9,-19.2,47.0,27.0,101.123,35.8,0,1,1,1,3,NONE,34,255
2026-05-27T23:33:05.140,678087,0.89,-0.27,-0.2,-29.9,-4.5,-5.1,-19.3,47.8,26.8,101.121,35.8,0,1,1,1,3,NONE,45,280
2026-05-27T23:33:05.192,678139,0.94,-0.27,-0.22,-4.6,-4.7,-4.6,-18.7,47.9,26.5,101.124,35.8,0,1,0,1,2,NONE,54,353
2026-05-27T23:33:05.240,678185,0.84,-0.31,-0.18,-2.5,-0.7,-3.9,-18.8,48.4,27.4,101.124,35.8,0,1,0,1,2,NONE,44,223
2026-05-27T23:33:05.285,678237,0.89,-0.34,-0.2,-6.0,2.4,-3.5,-18.5,47.9,25.7,101.125,35.8,0,1,1,1,3,NONE,33,191
2026-05-27T23:33:05.337,678285,0.88,-0.31,-0.18,-5.6,1.9,-2.7,-18.8,48.3,24.8,101.124,35.8,0,1,1,1,3,NONE,32,188
2026-05-27T23:33:05.387,678337,0.88,-0.34,-0.12,-9.8,7.4,-1.5,-18.5,48.4,26.5,101.12,35.8,0,1,1,1,3,NONE,39,221
2026-05-27T23:33:05.445,678389,0.92,-0.37,-0.11,-10.1,9.6,3.8,-19.0,48.3,25.5,101.119,35.8,0,1,1,1,3,NONE,56,352
2026-05-27T23:33:05.492,678437,0.94,-0.28,-0.12,-2.2,8.8,8.2,-19.1,48.6,26.6,101.122,35.8,0,1,1,1,3,NONE,71,420
2026-05-27T23:33:05.541,678485,0.86,-0.25,-0.14,-2.3,12.5,5.3,-18.8,48.2,25.9,101.123,35.8,0,1,1,1,3,NONE,65,345
2026-05-27T23:33:05.589,678537,0.9,-0.29,-0.16,8.9,9.0,11.0,-19.3,49.0,24.9,101.122,35.8,0,1,1,1,3,NONE,87,353
2026-05-27T23:33:05.641,678587,0.91,-0.38,-0.13,7.3,14.9,9.8,-19.0,48.4,26.5,101.122,35.8,0,1,1,1,3,NONE,105,547
2026-05-27T23:33:05.696,678635,0.92,-0.26,-0.13,4.6,14.3,14.5,-19.2,48.7,26.1,101.123,35.81,0,1,1,1,3,NONE,45,264
2026-05-27T23:33:05.740,678687,0.93,-0.26,-0.1,26.2,7.8,15.3,-19.9,48.7,27.0,101.123,35.8,0,1,1,1,3,NONE,49,274
2026-05-27T23:33:05.795,678739,0.9,-0.2,-0.08,38.9,4.6,19.2,-18.6,47.9,27.1,101.122,35.81,0,1,1,1,3,NONE,52,318
2026-05-27T23:33:05.832,678785,1.03,-0.33,-0.17,50.7,11.2,13.9,-18.8,47.1,27.7,101.124,35.8,0,1,1,1,3,NONE,44,244
2026-05-27T23:33:05.891,678837,1.14,-0.15,-0.35,37.2,4.0,-0.5,-19.0,45.3,27.4,101.125,35.8,0,1,1,1,3,NONE,69,344
2026-05-27T23:33:05.940,678885,0.85,0.05,-0.31,76.9,7.2,2.3,-19.6,43.8,28.5,101.121,35.8,0,1,1,1,3,NONE,80,408
2026-05-27T23:33:05.993,678937,1.01,-0.23,-0.38,63.5,16.2,6.0,-19.7,41.9,30.1,101.121,35.8,0,1,1,1,3,NONE,44,288
2026-05-27T23:33:06.044,678989,0.97,-0.15,-0.14,19.4,4.5,-2.3,-19.7,40.7,30.7,101.127,35.8,0,1,1,1,3,NONE,42,267
2026-05-27T23:33:06.090,679037,0.9,-0.12,-0.33,9.6,10.7,7.2,-20.0,40.6,30.4,101.124,35.8,0,1,1,1,3,NONE,43,229
2026-05-27T23:33:06.135,679085,0.96,-0.08,-0.19,26.4,-0.1,2.6,-20.2,39.7,30.1,101.123,35.8,0,1,1,1,3,NONE,46,282
2026-05-27T23:33:06.181,679137,0.92,0.03,-0.26,31.2,1.4,-2.3,-19.7,38.2,30.7,101.126,35.8,0,1,1,1,3,NONE,35,189
2026-05-27T23:33:06.232,679187,0.92,-0.1,-0.2,27.6,2.6,-10.0,-20.0,37.5,31.3,101.127,35.8,0,1,1,1,3,NONE,30,182
2026-05-27T23:33:06.281,679235,0.9,-0.12,-0.22,19.4,-2.7,-19.9,-20.2,37.2,30.5,101.123,35.8,0,1,1,1,3,NONE,76,478
2026-05-27T23:33:06.343,679287,0.91,-0.25,-0.21,1.4,-8.1,-20.9,-19.8,36.9,31.8,101.126,35.8,0,1,1,1,3,NONE,108,405
2026-05-27T23:33:06.395,679339,0.9,-0.17,-0.17,24.3,-14.2,-21.1,-19.3,36.7,32.2,101.125,35.8,0,1,1,1,3,NONE,33,193
2026-05-27T23:33:06.440,679385,1.07,-0.06,-0.43,18.4,9.9,-18.2,-18.2,35.6,31.8,101.124,35.8,0,1,1,1,3,NONE,59,199
2026-05-27T23:33:06.492,679437,1.07,-0.2,-0.28,48.0,-25.8,-7.2,-18.4,34.4,32.4,101.127,35.8,0,1,0,1,2,NONE,71,89
2026-05-27T23:33:06.538,679485,0.96,-0.2,-0.3,0.5,-5.8,-6.7,-18.0,33.4,32.0,101.123,35.8,0,1,0,1,2,NONE,30,108
2026-05-27T23:33:06.585,679537,1.03,-0.18,-0.32,36.8,-9.5,-8.3,-17.1,32.8,32.2,101.123,35.8,0,1,0,1,2,NONE,23,134
2026-05-27T23:33:06.634,679589,0.82,-0.28,-0.28,19.2,-12.5,-16.2,-17.2,32.2,32.0,101.123,35.8,0,1,0,1,2,NONE,15,67
2026-05-27T23:33:06.680,679637,0.93,-0.2,-0.24,26.1,-7.9,-8.7,-15.9,32.1,30.7,101.121,35.8,0,1,0,1,2,NONE,22,84
2026-05-27T23:33:06.745,679688,0.89,-0.19,-0.22,25.5,-4.5,-6.2,-15.6,31.0,31.4,101.126,35.8,0,1,0,1,2,NONE,29,64
2026-05-27T23:33:06.780,679735,0.92,-0.28,-0.23,25.9,-3.2,-4.5,-15.4,29.9,32.6,101.123,35.8,0,1,1,1,3,NONE,22,98
2026-05-27T23:33:06.845,679789,0.85,-0.27,-0.26,20.6,-0.4,-0.5,-15.4,30.2,30.9,101.122,35.8,0,1,1,1,3,NONE,17,116
2026-05-27T23:33:06.890,679835,0.9,-0.26,-0.23,31.0,-8.1,2.3,-14.3,29.1,31.0,101.125,35.8,0,1,1,1,3,NONE,66,301
2026-05-27T23:33:06.940,679885,0.86,-0.25,-0.16,21.6,-3.4,6.8,-13.6,28.2,30.2,101.122,35.8,0,1,1,1,3,NONE,48,331
2026-05-27T23:33:06.987,679937,0.95,-0.18,-0.2,26.6,2.9,11.7,-13.7,27.6,31.4,101.125,35.8,0,1,1,1,3,NONE,41,248
2026-05-27T23:33:07.037,679989,0.89,-0.17,-0.18,54.2,-8.8,14.9,-13.7,26.6,31.7,101.124,35.8,0,1,1,1,3,NONE,68,402
2026-05-27T23:33:07.086,680037,0.93,-0.27,-0.15,40.4,8.9,9.7,-13.2,24.0,31.1,101.123,35.8,0,1,0,1,2,NONE,62,367
2026-05-27T23:33:07.131,680085,0.94,-0.26,-0.38,37.5,11.8,0.1,-13.8,23.4,30.8,101.126,35.8,0,1,0,1,2,NONE,73,448
2026-05-27T23:33:07.183,680138,1.02,-0.09,-0.3,14.3,21.8,7.9,-13.4,22.6,29.1,101.122,35.8,0,1,1,1,3,NONE,88,426
2026-05-27T23:33:07.245,680187,0.9,-0.01,-0.34,58.2,-1.0,7.6,-14.1,22.2,29.4,101.123,35.8,0,1,1,1,3,NONE,62,355
2026-05-27T23:33:07.291,680236,0.93,-0.24,-0.09,40.1,14.4,6.1,-14.2,20.9,29.9,101.124,35.8,0,1,0,1,2,NONE,57,329
2026-05-27T23:33:07.343,680287,1.11,-0.05,-0.29,2.7,18.4,3.5,-14.2,19.9,30.5,101.125,35.8,0,1,0,1,2,NONE,40,245
2026-05-27T23:33:07.387,680339,0.94,-0.02,-0.25,32.8,-1.8,4.6,-15.2,20.0,29.4,101.121,35.8,0,1,0,1,2,NONE,79,444
2026-05-27T23:33:07.441,680385,0.9,-0.04,-0.2,20.6,7.0,-2.9,-15.0,19.1,29.3,101.121,35.8,0,1,0,1,2,NONE,108,557
2026-05-27T23:33:07.486,680437,0.92,-0.15,-0.18,9.0,7.1,-10.1,-14.7,18.8,28.8,101.124,35.8,0,1,0,1,2,NONE,80,432
2026-05-27T23:33:07.538,680485,0.93,-0.08,-0.22,2.6,3.8,-14.3,-14.6,18.9,29.1,101.123,35.8,0,1,0,1,2,NONE,50,318
2026-05-27T23:33:07.594,680537,0.96,-0.11,-0.2,-0.5,-3.0,-18.5,-14.8,18.9,29.2,101.122,35.8,0,1,0,1,2,NONE,47,299
2026-05-27T23:33:07.643,680589,0.91,-0.21,-0.12,1.5,-9.0,-20.9,-13.9,19.5,30.4,101.125,35.79,0,1,0,1,2,NONE,95,520
2026-05-27T23:33:07.692,680637,1.17,-0.01,-0.59,22.1,32.3,-13.5,-13.7,19.6,28.6,101.127,35.8,0,1,1,1,3,NONE,205,951
2026-05-27T23:33:07.739,680688,0.96,-0.5,-0.32,-13.7,-15.4,-13.4,-13.6,18.7,29.2,101.123,35.8,0,1,1,1,3,NONE,173,731
2026-05-27T23:33:07.793,680737,0.87,-0.09,-0.36,-16.0,2.9,-3.6,-12.9,19.1,29.4,101.121,35.8,0,1,0,1,2,NONE,79,497
2026-05-27T23:33:07.836,680785,0.92,-0.27,-0.36,2.4,-4.1,-6.4,-12.7,20.0,29.4,101.123,35.8,0,1,0,1,2,NONE,61,372
2026-05-27T23:33:07.894,680838,0.88,-0.24,-0.35,1.4,-5.7,-9.0,-12.4,19.9,29.3,101.125,35.8,0,1,1,1,3,NONE,68,456
2026-05-27T23:33:07.929,680887,0.85,-0.29,-0.28,1.8,-6.1,-7.6,-12.3,20.5,29.1,101.123,35.8,0,1,1,1,3,NONE,52,401
2026-05-27T23:33:07.977,680935,0.87,-0.33,-0.37,-4.8,0.1,-3.4,-12.0,20.0,28.5,101.119,35.79,0,1,0,1,2,NONE,68,368
2026-05-27T23:33:08.041,680987,0.89,-0.3,-0.3,-1.2,-1.5,-0.4,-11.2,20.5,30.0,101.122,35.8,0,1,0,1,2,NONE,73,429
2026-05-27T23:33:08.091,681039,0.88,-0.31,-0.24,-3.8,-4.3,2.3,-11.0,20.9,29.3,101.125,35.8,0,1,1,1,3,NONE,92,415
2026-05-27T23:33:08.136,681085,0.85,-0.24,-0.25,1.5,-1.6,6.7,-10.9,20.6,29.2,101.12,35.79,0,1,1,1,3,NONE,85,493
2026-05-27T23:33:08.185,681137,0.87,-0.32,-0.1,-1.8,2.0,15.3,-11.2,21.1,28.9,101.123,35.8,0,1,1,1,3,NONE,126,701
2026-05-27T23:33:08.232,681185,0.95,-0.29,-0.13,17.8,-9.6,23.6,-10.0,20.8,29.0,101.12,35.8,0,1,1,1,3,NONE,115,698
2026-05-27T23:33:08.292,681237,0.95,-0.23,-0.11,12.9,-15.7,19.2,-10.1,20.1,29.2,101.121,35.8,0,1,0,1,2,NONE,146,845
2026-05-27T23:33:08.328,681286,0.89,-0.22,-0.07,18.9,-9.2,17.7,-9.5,19.5,28.8,101.126,35.8,0,1,0,1,2,NONE,163,865
2026-05-27T23:33:08.391,681336,1.07,-0.18,-0.32,30.9,-3.8,17.2,-9.3,18.9,27.8,101.123,35.8,0,1,1,1,3,NONE,152,910
2026-05-27T23:33:08.439,681387,0.66,0.01,-0.28,31.1,-16.9,6.2,-9.2,18.6,28.2,101.12,35.8,0,1,1,1,3,NONE,97,498
2026-05-27T23:33:08.487,681439,1.08,-0.1,-0.35,29.1,26.7,4.1,-9.1,17.8,27.5,101.124,35.8,0,1,0,1,2,NONE,50,292
2026-05-27T23:33:08.541,681485,0.88,-0.19,-0.17,44.1,-1.2,6.4,-9.4,16.3,26.6,101.126,35.8,0,1,0,1,2,NONE,71,325
2026-05-27T23:33:08.594,681537,0.99,-0.15,-0.06,17.6,31.1,5.7,-10.5,15.6,27.8,101.124,35.8,0,1,0,1,2,NONE,54,346
2026-05-27T23:33:08.628,681585,0.99,-0.05,-0.42,5.5,36.4,5.2,-11.1,16.3,27.6,101.124,35.8,0,1,0,1,2,NONE,57,256
2026-05-27T23:33:08.692,681638,0.98,-0.03,-0.16,28.7,12.9,6.2,-11.9,15.6,27.3,101.123,35.8,0,1,1,1,3,NONE,39,212
2026-05-27T23:33:08.744,681688,0.9,-0.09,-0.12,12.6,19.5,-4.1,-11.6,14.7,25.9,101.121,35.8,0,1,1,1,3,NONE,35,209
2026-05-27T23:33:08.790,681737,0.96,-0.16,-0.22,-2.6,11.1,-14.0,-11.7,14.9,27.6,101.124,35.8,0,1,0,1,2,NONE,116,632
2026-05-27T23:33:08.836,681785,0.91,-0.18,-0.07,-13.1,1.4,-17.4,-12.0,15.7,26.8,101.122,35.8,0,1,0,1,2,NONE,100,722
2026-05-27T23:33:08.889,681837,1.05,0.01,-0.33,-16.5,27.0,-14.2,-11.6,16.1,26.8,101.121,35.8,0,1,1,1,3,NONE,69,367
2026-05-27T23:33:08.933,681887,1.0,-0.1,-0.45,-1.0,-16.1,-13.0,-11.4,17.0,26.8,101.125,35.8,0,1,1,1,3,NONE,60,333
2026-05-27T23:33:08.982,681935,1.18,-0.36,-0.59,-22.9,3.7,-8.2,-11.1,17.9,27.9,101.125,35.8,0,1,0,1,2,NONE,60,383
2026-05-27T23:33:09.032,681987,0.88,-0.24,-0.37,-6.0,-14.9,-8.8,-10.4,18.0,28.2,101.12,35.8,0,1,0,1,2,NONE,72,453
2026-05-27T23:33:09.094,682039,0.88,-0.22,-0.34,12.5,-16.7,-3.1,-9.9,17.9,27.5,101.126,35.8,0,1,1,1,3,NONE,95,441
2026-05-27T23:33:09.128,682085,0.87,-0.35,-0.29,10.9,-10.1,-10.0,-8.9,17.2,27.3,101.122,35.8,0,1,1,1,3,NONE,125,675
2026-05-27T23:33:09.194,682139,0.85,-0.31,-0.32,-0.1,-10.9,-9.6,-8.2,17.7,26.9,101.122,35.8,0,1,0,1,2,NONE,65,368
2026-05-27T23:33:09.239,682185,0.89,-0.28,-0.3,4.3,-6.3,-5.9,-7.7,18.1,26.8,101.122,35.8,0,1,0,1,2,NONE,47,283
2026-05-27T23:33:09.293,682237,0.87,-0.33,-0.26,3.8,-4.7,-3.8,-7.2,17.4,26.3,101.123,35.8,0,1,0,1,2,NONE,40,209
2026-05-27T23:33:09.333,682285,0.89,-0.32,-0.2,5.9,-6.1,1.6,-6.5,17.7,25.6,101.125,35.8,0,1,0,1,2,NONE,27,140
2026-05-27T23:33:09.393,682337,0.85,-0.33,-0.2,3.2,0.2,3.7,-6.2,17.3,25.8,101.123,35.8,0,1,1,1,3,NONE,27,147
2026-05-27T23:33:09.444,682388,0.88,-0.29,-0.23,8.1,7.8,4.0,-6.2,18.4,26.6,101.121,35.8,0,1,1,1,3,NONE,55,303
2026-05-27T23:33:09.492,682437,0.91,-0.32,-0.14,2.3,1.5,6.1,-7.0,17.3,27.1,101.121,35.79,0,1,1,1,3,NONE,55,292
2026-05-27T23:33:09.540,682485,0.89,-0.22,-0.15,2.5,-1.6,9.7,-7.1,17.6,27.6,101.127,35.8,0,1,1,1,3,NONE,53,342
2026-05-27T23:33:09.592,682537,0.98,-0.29,-0.09,11.5,-3.5,15.1,-6.6,17.0,25.9,101.125,35.8,0,1,0,1,2,NONE,51,251
2026-05-27T23:33:09.640,682587,0.92,-0.23,-0.1,12.2,-9.4,19.2,-6.4,16.6,26.5,101.123,35.8,0,1,0,1,2,NONE,36,240
2026-05-27T23:33:09.688,682636,0.98,-0.26,-0.2,21.9,-1.9,15.3,-6.3,16.0,26.6,101.121,35.8,0,1,1,1,3,NONE,46,328
2026-05-27T23:33:09.737,682687,0.98,-0.36,-0.33,-0.2,-5.0,12.1,-6.6,16.5,25.7,101.124,35.8,0,1,1,1,3,NONE,37,213
2026-05-27T23:33:09.789,682739,1.03,-0.1,-0.22,7.7,-10.3,21.0,-6.4,16.3,26.0,101.12,35.8,0,1,1,1,3,NONE,45,174
2026-05-27T23:33:09.833,682785,0.77,-0.03,-0.28,47.6,-9.5,17.0,-5.7,15.4,26.0,101.125,35.79,0,1,1,1,3,NONE,44,200
2026-05-27T23:33:09.893,682837,0.99,-0.02,-0.29,38.3,-5.6,10.7,-6.1,14.1,24.2,101.124,35.8,0,1,0,1,2,NONE,52,224
2026-05-27T23:33:09.925,682885,0.9,-0.13,-0.03,29.0,-6.8,-0.2,-5.8,13.7,25.1,101.122,35.8,0,1,0,1,2,NONE,55,240
2026-05-27T23:33:09.993,682937,1.08,-0.13,-0.16,-2.1,19.4,-1.2,-5.4,13.6,23.5,101.122,35.79,0,1,0,1,2,NONE,108,643
2026-05-27T23:33:10.047,682988,0.97,-0.09,-0.09,19.3,5.4,1.8,-5.4,13.3,22.5,101.124,35.8,0,1,0,1,2,NONE,127,657
2026-05-27T23:33:10.089,683037,0.88,-0.02,-0.09,20.6,14.2,0.4,-5.8,13.0,24.1,101.124,35.8,0,1,0,0,1,NONE,138,760
2026-05-27T23:33:10.134,683085,0.9,-0.11,-0.06,12.5,11.7,-4.2,-5.9,12.7,22.2,101.125,35.8,0,1,0,0,1,NONE,257,1129
2026-05-27T23:33:10.190,683137,0.87,-0.09,-0.05,-1.6,10.4,-20.3,-6.2,12.3,22.7,101.125,35.8,0,1,0,1,2,NONE,279,1163
2026-05-27T23:33:10.233,683187,0.9,-0.21,0.04,-27.1,8.1,-23.8,-5.9,13.0,22.5,101.123,35.8,0,1,0,1,2,NONE,547,1985
2026-05-27T23:33:10.290,683235,1.36,-0.04,-0.7,25.5,46.3,-0.2,-5.9,14.5,24.6,101.125,35.8,0,1,0,0,1,NONE,167,890
2026-05-27T23:33:10.343,683287,0.99,-0.45,-0.38,-15.5,14.6,-16.2,-6.6,13.8,23.4,101.122,35.8,0,1,0,0,1,NONE,115,706
2026-05-27T23:33:10.392,683339,1.06,-0.12,-0.38,-7.2,4.0,-5.4,-5.9,15.0,24.5,101.12,35.8,0,1,0,1,2,NONE,119,750
2026-05-27T23:33:10.437,683385,0.9,-0.36,-0.28,-2.7,-2.4,-4.2,-5.5,15.0,25.5,101.12,35.8,0,1,0,1,2,NONE,142,768
2026-05-27T23:33:10.492,683437,0.84,-0.32,-0.29,-1.3,-0.9,-9.0,-5.5,14.5,24.3,101.124,35.8,0,1,0,0,1,NONE,130,708
2026-05-27T23:33:10.532,683485,0.87,-0.29,-0.26,-9.6,0.2,-6.3,-4.8,14.9,24.8,101.12,35.8,0,1,0,0,1,NONE,107,630
2026-05-27T23:33:10.593,683537,0.85,-0.3,-0.24,-7.5,5.1,-5.6,-4.3,15.2,25.5,101.119,35.8,0,1,0,0,1,NONE,103,511
2026-05-27T23:33:10.644,683588,0.88,-0.35,-0.29,-7.7,9.9,-3.3,-4.5,16.2,25.6,101.125,35.8,0,1,0,0,1,NONE,109,547
2026-05-27T23:33:10.693,683637,0.86,-0.37,-0.21,-17.8,11.4,-0.7,-4.8,15.8,25.9,101.122,35.8,0,1,0,0,1,NONE,49,343
2026-05-27T23:33:10.740,683685,0.89,-0.37,-0.23,-28.7,10.7,2.0,-5.0,16.6,26.6,101.125,35.8,0,1,0,0,1,NONE,56,301
2026-05-27T23:33:10.793,683737,0.89,-0.27,-0.25,-7.2,0.1,9.8,-4.9,17.7,26.5,101.12,35.8,0,1,0,1,2,NONE,56,366
2026-05-27T23:33:10.840,683787,0.85,-0.31,-0.14,-2.5,-0.3,14.1,-4.8,17.7,26.5,101.123,35.8,0,1,0,1,2,NONE,74,430
2026-05-27T23:33:10.888,683835,0.93,-0.28,-0.19,8.7,5.5,15.9,-4.8,17.6,25.5,101.119,35.8,0,1,0,0,1,NONE,55,307
2026-05-27T23:33:10.932,683887,0.89,-0.33,-0.14,7.3,-3.2,19.5,-4.8,17.5,25.7,101.122,35.8,0,1,0,0,1,NONE,68,327
2026-05-27T23:33:10.993,683939,0.92,-0.31,-0.21,8.2,-2.6,19.3,-4.8,16.8,25.9,101.126,35.8,0,1,0,0,1,NONE,80,463
2026-05-27T23:33:11.028,683985,0.95,-0.23,-0.19,26.4,-4.1,25.3,-4.8,16.2,24.9,101.121,35.8,0,1,0,0,1,NONE,75,464
2026-05-27T23:33:11.093,684037,0.93,-0.33,-0.27,8.5,-6.2,17.8,-5.2,15.7,25.4,101.124,35.79,0,1,0,1,2,NONE,44,296
2026-05-27T23:33:11.140,684085,1.15,-0.07,-0.24,30.8,-13.3,21.9,-5.1,15.4,24.9,101.122,35.79,0,1,0,1,2,NONE,91,669
2026-05-27T23:33:11.194,684137,0.83,-0.09,-0.18,37.1,-8.0,15.5,-5.2,14.2,25.1,101.121,35.8,0,1,0,1,2,NONE,81,514
2026-05-27T23:33:11.238,684188,0.93,-0.0,-0.23,39.1,4.4,8.5,-5.1,13.8,23.7,101.124,35.8,0,1,0,1,2,NONE,76,380
2026-05-27T23:33:11.287,684237,0.92,-0.16,-0.07,17.8,6.5,1.3,-4.9,12.8,23.7,101.123,35.79,0,1,0,1,2,NONE,111,718
2026-05-27T23:33:11.332,684285,0.97,-0.05,-0.27,11.1,13.6,2.4,-5.3,12.3,23.0,101.123,35.8,0,1,0,1,2,NONE,71,377
2026-05-27T23:33:11.383,684337,0.94,-0.08,-0.1,24.1,2.9,0.1,-5.8,12.4,23.0,101.12,35.8,0,1,0,1,2,NONE,105,675
2026-05-27T23:33:11.430,684387,0.9,-0.07,-0.11,11.0,15.3,-3.8,-5.9,12.3,24.0,101.123,35.79,0,1,0,1,2,NONE,117,737
2026-05-27T23:33:11.476,684435,0.93,-0.09,-0.08,2.7,15.9,-9.8,-5.6,11.8,24.0,101.124,35.79,0,1,0,0,1,NONE,71,395
2026-05-27T23:33:11.543,684487,0.98,-0.19,-0.04,-3.3,12.4,-15.5,-5.8,12.0,22.6,101.123,35.79,0,1,0,0,1,NONE,117,675
2026-05-27T23:33:11.590,684539,0.89,-0.18,0.02,-14.8,2.6,-13.5,-5.9,12.7,22.6,101.122,35.79,0,1,0,0,1,NONE,135,745
2026-05-27T23:33:11.639,684585,1.07,0.06,-0.47,-29.2,45.2,-11.8,-6.0,13.2,24.0,101.121,35.79,0,1,0,0,1,NONE,104,427
2026-05-27T23:33:11.687,684637,1.14,-0.32,-0.48,16.5,-30.1,4.9,-5.5,14.2,23.6,101.124,35.8,0,1,0,0,1,NONE,85,420
2026-05-27T23:33:11.741,684685,0.98,-0.21,-0.28,-22.0,5.0,4.1,-5.6,13.3,23.9,101.124,35.79,0,1,0,0,1,NONE,52,296
2026-05-27T23:33:11.786,684737,1.05,-0.28,-0.35,1.0,-4.0,-4.0,-5.0,13.8,25.3,101.122,35.8,0,1,0,0,1,NONE,181,994
2026-05-27T23:33:11.839,684789,0.84,-0.27,-0.3,-0.4,-7.8,-11.2,-4.8,14.1,24.8,101.126,35.79,0,1,0,0,1,NONE,133,658
2026-05-27T23:33:11.884,684837,0.88,-0.25,-0.26,1.4,-6.8,-8.2,-4.2,15.0,24.9,101.122,35.8,0,1,0,0,1,NONE,334,1624
2026-05-27T23:33:11.928,684885,0.85,-0.27,-0.25,4.6,-7.1,-7.3,-3.6,14.7,23.5,101.125,35.79,0,1,0,0,1,NONE,302,1607
2026-05-27T23:33:11.992,684937,0.87,-0.36,-0.24,-19.2,2.4,-4.3,-3.5,15.1,24.2,101.125,35.8,0,1,0,0,1,NONE,95,497
2026-05-27T23:33:12.042,684987,0.9,-0.28,-0.25,-9.0,-3.5,-1.8,-3.3,15.4,24.5,101.12,35.8,0,1,0,0,1,NONE,76,467
2026-05-27T23:33:12.092,685035,0.89,-0.35,-0.18,-19.6,1.3,3.4,-2.8,15.9,24.1,101.126,35.8,0,1,0,1,2,NONE,77,441
2026-05-27T23:33:12.143,685087,0.88,-0.25,-0.18,-8.4,0.2,7.9,-3.0,16.6,25.7,101.124,35.79,0,1,0,1,2,NONE,97,653
2026-05-27T23:33:12.184,685139,0.92,-0.31,-0.13,-2.1,-1.1,11.5,-3.3,16.4,24.5,101.123,35.79,0,1,1,1,3,NONE,94,644
2026-05-27T23:33:12.240,685185,0.92,-0.24,-0.15,-0.4,-1.3,12.6,-3.2,16.3,24.9,101.124,35.8,0,1,1,1,3,NONE,131,667
2026-05-27T23:33:12.279,685237,0.95,-0.25,-0.05,16.2,-5.1,13.3,-3.0,15.3,24.2,101.124,35.8,0,1,0,0,1,NONE,180,906
2026-05-27T23:33:12.329,685285,0.97,-0.25,-0.13,10.1,-11.2,14.0,-3.2,15.5,25.2,101.117,35.79,0,1,0,0,1,NONE,64,443
2026-05-27T23:33:12.393,685337,0.87,-0.24,-0.11,22.2,-7.4,18.2,-2.5,15.3,24.5,101.121,35.79,0,1,0,1,2,NONE,57,376
2026-05-27T23:33:12.444,685389,1.09,-0.38,-0.29,20.1,13.9,10.7,-3.0,14.1,24.1,101.119,35.79,0,1,0,1,2,NONE,71,508
2026-05-27T23:33:12.492,685437,1.0,-0.07,-0.17,-1.1,-3.1,30.9,-2.8,14.5,24.5,101.125,35.79,0,1,0,0,1,NONE,90,547
2026-05-27T23:33:12.536,685485,0.97,-0.14,-0.27,49.4,7.5,11.8,-3.1,13.3,23.0,101.123,35.8,0,1,0,0,1,NONE,68,477
2026-05-27T23:33:12.593,685537,0.86,-0.03,-0.19,27.4,11.8,11.8,-3.4,12.7,23.1,101.121,35.8,0,1,0,0,1,NONE,72,471
2026-05-27T23:33:12.637,685587,0.88,-0.12,-0.13,23.0,13.1,3.1,-4.6,12.6,23.1,101.121,35.79,0,1,0,0,1,NONE,71,463
2026-05-27T23:33:12.681,685636,1.05,-0.14,-0.19,-2.2,30.9,1.9,-4.9,12.4,22.5,101.124,35.79,0,1,0,0,1,NONE,85,477
2026-05-27T23:33:12.734,685687,0.96,-0.07,-0.2,4.3,12.8,1.9,-4.8,12.6,23.8,101.122,35.8,0,1,0,0,1,NONE,58,379
2026-05-27T23:33:12.794,685739,0.97,-0.07,-0.14,4.6,16.5,2.5,-5.6,12.1,24.4,101.125,35.79,0,1,0,0,1,NONE,67,521
2026-05-27T23:33:12.830,685785,0.94,-0.08,-0.16,5.0,15.4,-3.3,-5.4,12.4,24.0,101.126,35.8,0,1,0,0,1,NONE,55,335
2026-05-27T23:33:12.893,685837,0.97,-0.14,-0.13,1.5,13.4,-8.5,-5.7,12.6,23.0,101.122,35.79,0,1,0,0,1,NONE,51,314
2026-05-27T23:33:12.939,685885,0.97,-0.14,-0.09,-7.9,7.3,-12.3,-5.9,13.2,23.9,101.126,35.8,0,1,0,0,1,NONE,43,228
2026-05-27T23:33:12.992,685937,0.88,-0.19,-0.09,-19.5,1.3,-16.2,-5.5,14.0,24.4,101.123,35.79,0,1,0,0,1,NONE,66,275
2026-05-27T23:33:13.044,685989,1.19,-0.01,-0.54,2.6,31.4,-8.4,-5.6,14.2,25.2,101.125,35.8,0,1,0,0,1,NONE,77,418
2026-05-27T23:33:13.088,686037,0.95,-0.36,-0.27,10.3,-2.9,-1.8,-5.6,13.8,24.5,101.122,35.79,0,1,0,0,1,NONE,122,592
2026-05-27T23:33:13.131,686085,1.03,-0.23,-0.44,-25.3,9.2,-4.9,-5.7,14.9,25.4,101.126,35.8,0,1,0,0,1,NONE,101,519
2026-05-27T23:33:13.184,686137,0.9,-0.25,-0.32,-7.0,-3.7,-2.6,-5.6,15.5,25.8,101.125,35.8,0,1,0,0,1,NONE,102,479
2026-05-27T23:33:13.228,686187,0.91,-0.24,-0.3,5.9,-2.3,-3.6,-4.2,15.3,25.1,101.123,35.79,0,1,0,0,1,NONE,100,542
2026-05-27T23:33:13.281,686235,0.83,-0.32,-0.28,-1.7,-4.9,-5.1,-4.4,15.6,25.5,101.122,35.8,0,1,0,0,1,NONE,88,595
2026-05-27T23:33:13.343,686287,0.88,-0.33,-0.28,-11.0,-0.1,-2.9,-4.2,15.7,25.3,101.12,35.79,0,1,0,0,1,NONE,67,434
2026-05-27T23:33:13.395,686339,0.87,-0.34,-0.28,-22.9,2.1,1.0,-3.6,16.7,26.5,101.126,35.79,0,1,0,0,1,NONE,90,476
2026-05-27T23:33:13.437,686385,0.91,-0.27,-0.24,-13.3,-4.2,2.4,-3.7,17.0,26.6,101.124,35.79,0,1,0,0,1,NONE,82,509
2026-05-27T23:33:13.488,686437,0.86,-0.3,-0.26,-22.2,-2.6,2.7,-3.6,17.6,26.5,101.121,35.79,0,1,0,0,1,NONE,72,348
2026-05-27T23:33:13.537,686485,0.89,-0.31,-0.2,-15.9,-4.6,4.8,-3.7,18.4,25.6,101.122,35.79,0,1,0,0,1,NONE,42,250
2026-05-27T23:33:13.585,686537,0.9,-0.31,-0.19,-11.5,-2.2,6.9,-3.4,18.5,25.5,101.119,35.8,0,1,0,0,1,NONE,51,324
2026-05-27T23:33:13.634,686589,0.91,-0.25,-0.16,1.9,-4.0,11.4,-3.3,18.9,26.8,101.119,35.8,0,1,0,0,1,NONE,71,376
2026-05-27T23:33:13.693,686637,0.91,-0.25,-0.15,3.7,-3.2,10.6,-2.7,18.4,25.9,101.122,35.79,0,1,0,0,1,NONE,61,401
2026-05-27T23:33:13.730,686685,0.92,-0.26,-0.15,6.5,-2.6,12.6,-2.9,19.0,26.7,101.124,35.79,0,1,0,0,1,NONE,63,395
2026-05-27T23:33:13.793,686737,0.91,-0.24,-0.12,21.1,-3.3,14.5,-2.7,18.4,27.8,101.126,35.8,0,1,0,0,1,NONE,50,260
2026-05-27T23:33:13.839,686785,0.9,-0.26,-0.11,19.2,-3.5,20.2,-2.7,17.8,26.7,101.122,35.8,0,1,0,0,1,NONE,46,302
2026-05-27T23:33:13.892,686837,1.0,-0.34,-0.36,33.9,18.4,13.3,-3.1,17.2,25.6,101.125,35.79,0,1,0,0,1,NONE,38,199
2026-05-27T23:33:13.941,686887,1.11,-0.14,-0.16,-14.4,8.7,14.5,-3.7,16.4,24.3,101.124,35.8,0,1,0,0,1,NONE,92,544
2026-05-27T23:33:13.991,686936,0.9,-0.08,-0.18,43.2,-5.7,13.7,-4.0,17.0,26.0,101.121,35.8,0,1,0,0,1,NONE,94,523
2026-05-27T23:33:14.037,686987,0.95,-0.1,-0.2,34.6,11.4,8.2,-3.6,15.6,26.3,101.125,35.79,0,1,0,0,1,NONE,107,801
2026-05-27T23:33:14.081,687039,0.95,-0.08,-0.2,27.3,5.7,2.4,-4.6,14.5,24.9,101.121,35.79,0,1,0,0,1,NONE,101,700
2026-05-27T23:33:14.129,687085,0.97,-0.06,-0.16,27.8,5.1,-0.1,-4.6,14.4,25.1,101.121,35.8,0,1,0,0,1,NONE,121,892
2026-05-27T23:33:14.193,687137,0.94,-0.04,-0.23,32.0,4.7,-1.4,-4.1,14.0,24.7,101.119,35.79,0,1,0,0,1,NONE,153,896
2026-05-27T23:33:14.240,687185,0.91,-0.13,-0.17,33.8,0.4,-3.3,-4.1,13.5,23.4,101.124,35.79,0,1,0,0,1,NONE,127,933
2026-05-27T23:33:14.298,687237,0.95,-0.1,-0.2,24.2,11.8,-5.1,-4.5,12.4,23.9,101.123,35.79,0,1,0,0,1,NONE,72,491
2026-05-27T23:33:14.342,687289,0.91,-0.07,-0.17,16.7,8.2,-5.6,-3.8,12.3,23.1,101.12,35.79,0,1,0,0,1,NONE,53,432
2026-05-27T23:33:14.391,687337,0.91,-0.1,-0.14,13.5,13.2,-9.3,-3.8,11.6,23.9,101.121,35.79,0,1,0,0,1,NONE,69,392
2026-05-27T23:33:14.436,687385,0.93,-0.09,-0.17,8.0,12.7,-11.2,-3.9,12.5,23.1,101.124,35.79,0,1,0,0,1,NONE,52,351
2026-05-27T23:33:14.483,687437,0.9,-0.12,-0.08,-6.0,8.6,-16.4,-4.4,12.0,23.6,101.121,35.79,0,1,0,0,1,NONE,46,207
2026-05-27T23:33:14.539,687487,1.24,-0.06,-0.41,-4.3,30.9,-12.1,-3.9,12.5,22.4,101.126,35.8,0,1,0,0,1,NONE,49,165
2026-05-27T23:33:14.582,687536,0.9,-0.44,-0.23,-1.8,-25.1,-2.3,-4.2,12.7,22.1,101.122,35.8,0,1,0,0,1,NONE,48,215
2026-05-27T23:33:14.644,687587,1.0,-0.14,-0.41,-15.0,20.8,-2.4,-3.9,13.4,22.9,101.124,35.8,0,1,0,0,1,NONE,79,378
2026-05-27T23:33:14.694,687639,0.94,-0.33,-0.32,3.2,-7.1,-5.3,-3.5,13.7,23.2,101.124,35.79,0,1,0,0,1,NONE,150,654
2026-05-27T23:33:14.740,687685,0.93,-0.25,-0.28,8.0,-7.9,-4.0,-3.6,14.2,23.4,101.121,35.8,0,1,0,0,1,NONE,173,1183
2026-05-27T23:33:14.790,687737,0.93,-0.3,-0.25,11.8,-17.6,-4.6,-3.0,13.5,23.1,101.121,35.79,0,1,0,0,1,NONE,200,1032
2026-05-27T23:33:14.838,687785,0.88,-0.26,-0.24,14.1,-16.2,-3.1,-1.9,13.4,22.0,101.12,35.79,0,1,0,0,1,NONE,115,716
2026-05-27T23:33:14.885,687837,0.91,-0.27,-0.25,12.1,-13.8,-2.4,-1.8,13.8,22.8,101.123,35.79,0,1,0,0,1,NONE,81,535
2026-05-27T23:33:14.946,687889,0.89,-0.27,-0.2,19.5,-13.2,-2.9,-0.8,13.4,21.4,101.123,35.79,0,1,0,0,1,NONE,82,466
2026-05-27T23:33:14.978,687937,0.9,-0.29,-0.18,9.3,-11.5,-2.1,-0.5,13.3,21.4,101.128,35.8,0,1,0,0,1,NONE,102,588
2026-05-27T23:33:15.029,687985,0.89,-0.31,-0.15,7.6,-6.7,1.5,-0.3,12.9,20.2,101.125,35.8,0,1,0,0,1,NONE,54,392
2026-05-27T23:33:15.093,688037,0.95,-0.26,-0.16,14.5,-8.7,3.4,0.3,13.6,21.7,101.123,35.79,0,1,0,0,1,NONE,53,298
2026-05-27T23:33:15.142,688087,0.9,-0.29,-0.12,7.4,-7.6,2.1,0.2,12.6,20.3,101.123,35.79,0,1,0,0,1,NONE,45,244
2026-05-27T23:33:15.191,688135,0.94,-0.22,-0.14,19.4,-6.0,2.4,0.8,12.2,19.7,101.121,35.79,0,1,0,0,1,NONE,61,350
2026-05-27T23:33:15.241,688187,0.9,-0.27,-0.13,21.9,-4.9,4.5,0.9,13.0,19.7,101.125,35.79,0,1,0,0,1,NONE,58,329
2026-05-27T23:33:15.283,688239,0.92,-0.22,-0.14,28.3,-1.8,6.9,1.2,11.8,18.0,101.121,35.79,0,1,0,0,1,NONE,59,354
2026-05-27T23:33:15.335,688287,0.93,-0.24,-0.09,38.1,-3.6,11.8,1.2,11.8,18.0,101.121,35.79,0,1,0,0,1,NONE,58,398
2026-05-27T23:33:15.380,688339,0.99,-0.27,-0.12,34.1,3.0,15.7,1.8,9.8,18.2,101.123,35.79,0,1,0,0,1,NONE,59,315
2026-05-27T23:33:15.428,688387,0.98,-0.33,-0.36,17.9,19.9,8.4,1.1,9.4,18.8,101.116,35.79,0,1,0,0,1,NONE,51,270
2026-05-27T23:33:15.481,688435,1.0,-0.03,-0.15,20.4,9.5,17.1,-0.4,8.7,18.1,101.123,35.79,0,1,0,0,1,NONE,33,161
2026-05-27T23:33:15.542,688487,0.85,-0.18,-0.17,54.8,13.6,8.3,0.5,8.1,17.4,101.122,35.79,0,1,0,0,1,NONE,46,227
2026-05-27T23:33:15.589,688539,1.0,-0.05,-0.23,32.2,16.7,4.8,-0.2,7.9,16.0,101.122,35.79,0,1,0,0,1,NONE,37,215
2026-05-27T23:33:15.642,688585,0.91,-0.1,-0.12,32.8,14.9,4.6,0.1,7.5,16.9,101.123,35.8,0,1,0,0,1,NONE,55,269
2026-05-27T23:33:15.687,688637,1.0,-0.13,-0.18,18.0,13.9,1.3,-0.8,6.6,15.7,101.125,35.8,0,1,0,0,1,NONE,37,226
2026-05-27T23:33:15.733,688685,0.88,-0.08,-0.24,13.8,20.6,1.2,-1.0,6.6,16.0,101.123,35.79,0,1,0,0,1,NONE,64,337
2026-05-27T23:33:15.781,688737,0.95,-0.14,-0.21,8.9,23.3,1.1,-1.2,6.6,15.2,101.124,35.79,0,1,0,0,1,NONE,48,320
2026-05-27T23:33:15.831,688788,0.93,-0.04,-0.22,-1.9,24.4,-3.1,-1.8,6.0,16.7,101.123,35.79,0,1,0,0,1,NONE,39,214
2026-05-27T23:33:15.893,688837,0.98,-0.07,-0.18,7.2,16.0,-7.8,-1.4,6.8,17.0,101.124,35.8,0,1,0,0,1,NONE,64,386
2026-05-27T23:33:15.941,688885,0.99,-0.09,-0.2,0.4,11.8,-11.3,-1.3,6.9,17.6,101.123,35.79,0,1,0,0,1,NONE,54,338
2026-05-27T23:33:15.992,688937,0.93,-0.16,-0.14,-15.3,-0.9,-12.3,-1.2,7.7,16.5,101.123,35.79,0,1,0,0,1,NONE,37,244
2026-05-27T23:33:16.039,688987,1.09,-0.06,-0.57,-25.6,27.8,-5.8,-1.0,8.7,18.3,101.124,35.8,0,1,0,0,1,NONE,83,278
2026-05-27T23:33:16.089,689035,0.95,-0.35,-0.28,-2.8,-26.7,4.6,-0.2,9.6,18.2,101.124,35.79,0,1,0,0,1,NONE,54,144
2026-05-27T23:33:16.138,689087,0.95,-0.15,-0.39,-13.7,-2.0,1.1,-0.1,9.4,20.5,101.123,35.79,0,1,0,0,1,NONE,50,264
2026-05-27T23:33:16.183,689139,0.87,-0.36,-0.32,-13.3,-8.7,-3.0,0.1,10.1,19.0,101.122,35.79,0,1,0,0,1,NONE,46,271
2026-05-27T23:33:16.230,689185,0.88,-0.27,-0.27,-0.2,-14.6,-3.8,0.9,10.4,19.0,101.125,35.79,0,1,0,0,1,NONE,64,351
2026-05-27T23:33:16.278,689237,0.9,-0.31,-0.22,-6.7,-12.6,-1.8,1.6,10.7,18.1,101.123,35.79,0,1,0,0,1,NONE,39,229
2026-05-27T23:33:16.329,689285,0.85,-0.33,-0.22,-8.1,-9.9,-0.9,1.8,10.9,18.3,101.122,35.79,0,1,0,0,1,NONE,48,275
2026-05-27T23:33:16.393,689337,0.89,-0.31,-0.23,-20.6,-2.7,-0.4,1.8,11.1,19.0,101.126,35.8,0,1,0,0,1,NONE,62,368
2026-05-27T23:33:16.442,689389,0.9,-0.29,-0.2,-17.4,0.1,2.5,2.0,11.6,19.0,101.121,35.79,0,1,0,0,1,NONE,47,355
2026-05-27T23:33:16.490,689436,0.92,-0.27,-0.2,-16.3,1.0,4.2,2.0,12.0,19.6,101.117,35.8,0,1,0,0,1,NONE,66,396
2026-05-27T23:33:16.536,689485,0.88,-0.26,-0.18,-10.3,5.8,6.3,2.1,12.7,19.7,101.125,35.79,0,1,0,0,1,NONE,43,266
2026-05-27T23:33:16.593,689537,0.92,-0.35,-0.21,-15.1,5.6,8.2,2.1,12.5,20.8,101.122,35.79,0,1,0,0,1,NONE,34,194
2026-05-27T23:33:16.632,689587,0.91,-0.29,-0.13,-17.4,5.9,10.2,1.5,13.3,20.0,101.122,35.79,0,1,0,0,1,NONE,48,183
2026-05-27T23:33:16.692,689635,0.93,-0.22,-0.13,-18.1,8.5,13.4,1.5,13.5,21.3,101.125,35.8,0,1,0,0,1,NONE,51,273
2026-05-27T23:33:16.742,689687,0.93,-0.21,-0.12,3.7,4.2,17.0,1.0,13.4,21.0,101.126,35.8,0,1,0,0,1,NONE,31,162
2026-05-27T23:33:16.793,689739,1.04,-0.33,-0.12,-3.4,10.4,19.7,0.4,12.9,21.1,101.123,35.79,0,1,0,0,1,NONE,74,478
2026-05-27T23:33:16.839,689785,0.99,-0.48,-0.34,-22.3,23.6,20.2,0.3,13.5,21.9,101.122,35.79,0,1,0,0,1,NONE,80,416
2026-05-27T23:33:16.888,689837,0.89,0.01,-0.28,-16.4,4.8,28.9,-1.1,14.3,21.9,101.123,35.79,0,1,0,0,1,NONE,44,212
2026-05-27T23:33:16.935,689885,0.87,-0.2,-0.18,7.0,17.6,19.0,-0.5,13.8,22.6,101.123,35.79,0,1,0,0,1,NONE,79,564
2026-05-27T23:33:16.984,689937,0.95,-0.12,-0.27,-19.8,17.5,15.8,-1.8,14.0,22.7,101.125,35.79,0,1,0,0,1,NONE,88,663
2026-05-27T23:33:17.036,689987,0.94,-0.18,-0.2,-17.7,13.3,9.4,-2.2,14.2,23.4,101.12,35.8,0,1,0,0,1,NONE,35,210
2026-05-27T23:33:17.084,690035,1.02,-0.06,-0.28,-27.1,18.2,8.3,-2.8,14.8,23.4,101.122,35.8,0,1,0,0,1,NONE,47,277
2026-05-27T23:33:17.141,690087,0.97,-0.15,-0.22,-18.2,3.5,9.2,-3.2,16.5,23.6,101.124,35.8,0,1,0,0,1,NONE,119,618
2026-05-27T23:33:17.193,690139,0.96,-0.16,-0.2,-30.1,14.7,9.8,-3.0,16.5,24.4,101.121,35.79,0,1,0,0,1,NONE,183,742
2026-05-27T23:33:17.236,690185,0.95,-0.11,-0.26,-33.6,13.9,9.0,-4.0,17.2,25.0,101.121,35.79,0,1,0,0,1,NONE,54,382
2026-05-27T23:33:17.284,690239,0.93,-0.13,-0.21,-30.5,15.6,7.0,-4.0,18.8,26.2,101.124,35.79,0,1,0,0,1,NONE,91,491
2026-05-27T23:33:17.336,690285,0.94,-0.12,-0.23,-39.1,19.7,5.2,-5.0,19.2,26.8,101.121,35.79,0,1,0,0,1,NONE,89,517
2026-05-27T23:33:17.389,690337,0.91,-0.15,-0.17,-40.2,13.5,0.5,-5.5,20.4,27.0,101.124,35.8,0,1,0,0,1,NONE,83,496
2026-05-27T23:33:17.437,690385,0.98,-0.15,-0.17,-44.2,14.2,-0.1,-5.7,22.0,27.0,101.124,35.79,0,1,0,0,1,NONE,69,372
2026-05-27T23:33:17.492,690437,0.95,-0.19,-0.15,-56.0,13.0,-3.4,-6.5,22.9,27.9,101.122,35.79,0,1,0,0,1,NONE,61,326
2026-05-27T23:33:17.542,690489,0.87,-0.19,-0.08,-66.0,2.5,-10.6,-6.2,25.3,28.5,101.121,35.79,0,1,0,0,1,NONE,70,460
2026-05-27T23:33:17.588,690537,1.07,-0.28,-0.57,-95.9,35.7,-4.9,-6.1,27.6,28.1,101.124,35.8,0,1,0,0,1,NONE,87,555
2026-05-27T23:33:17.640,690585,1.05,-0.38,-0.17,-9.8,-5.9,11.5,-7.3,30.1,30.2,101.122,35.79,0,1,0,0,1,NONE,102,601
2026-05-27T23:33:17.690,690638,0.95,-0.37,-0.39,-76.5,0.5,-0.1,-6.9,31.0,29.2,101.122,35.8,0,1,0,0,1,NONE,63,336
2026-05-27T23:33:17.738,690687,0.88,-0.33,-0.22,-62.3,-3.7,-2.9,-6.6,33.3,28.3,101.123,35.79,0,1,0,0,1,NONE,42,296
2026-05-27T23:33:17.783,690736,0.82,-0.24,-0.22,-30.4,-9.6,-1.2,-7.2,35.4,28.7,101.121,35.8,0,1,0,0,1,NONE,60,341
2026-05-27T23:33:17.843,690787,0.83,-0.32,-0.23,-25.0,0.2,2.6,-6.1,36.1,28.4,101.122,35.79,0,1,0,0,1,NONE,61,384
2026-05-27T23:33:17.890,690839,0.86,-0.38,-0.21,-24.0,0.9,4.8,-5.5,36.9,28.3,101.122,35.79,0,1,0,0,1,NONE,150,903
2026-05-27T23:33:17.940,690885,0.87,-0.39,-0.17,-29.8,0.8,7.4,-5.8,37.9,27.2,101.121,35.79,0,1,0,0,1,NONE,69,363
2026-05-27T23:33:17.992,690937,0.86,-0.34,-0.13,-21.7,3.8,9.1,-5.8,38.5,27.3,101.12,35.79,0,1,0,0,1,NONE,54,415
2026-05-27T23:33:18.040,690985,0.88,-0.35,-0.13,-32.4,8.5,8.1,-6.9,39.8,27.4,101.121,35.8,0,1,0,0,1,NONE,45,254
2026-05-27T23:33:18.083,691037,0.91,-0.35,-0.09,-29.3,9.8,11.7,-6.1,40.5,27.0,101.124,35.79,0,1,0,0,1,NONE,120,615
2026-05-27T23:33:18.140,691089,0.89,-0.34,-0.11,-24.9,13.4,16.7,-6.6,40.9,26.4,101.121,35.79,0,1,0,0,1,NONE,157,773
2026-05-27T23:33:18.182,691137,0.88,-0.27,-0.11,-21.5,13.7,21.8,-6.9,41.8,26.8,101.124,35.8,0,1,1,1,3,NONE,220,922
2026-05-27T23:33:18.241,691185,0.93,-0.27,-0.05,-21.5,15.3,20.8,-6.4,42.4,26.2,101.12,35.79,0,1,1,1,3,NONE,213,998
2026-05-27T23:33:18.290,691237,0.92,-0.31,-0.11,-25.7,17.0,28.6,-6.7,42.9,26.0,101.123,35.79,0,1,0,1,2,NONE,245,1136
2026-05-27T23:33:18.341,691285,0.99,-0.24,-0.26,-12.5,25.8,23.4,-6.9,43.2,26.6,101.123,35.79,0,1,0,1,2,NONE,164,964
2026-05-27T23:33:18.387,691337,0.92,-0.18,-0.15,-24.4,23.7,26.2,-6.9,43.7,27.1,101.122,35.79,0,1,0,0,1,NONE,59,362
2026-05-27T23:33:18.441,691387,1.0,-0.32,-0.24,-13.9,25.2,22.0,-7.2,43.6,26.0,101.122,35.8,0,1,0,0,1,NONE,57,395
2026-05-27T23:33:18.484,691435,1.01,-0.08,-0.28,-20.1,14.3,21.8,-7.1,43.7,25.7,101.123,35.79,0,1,0,0,1,NONE,49,239
2026-05-27T23:33:18.542,691487,0.99,-0.1,-0.22,-7.0,3.5,15.4,-7.9,44.2,25.2,101.12,35.8,0,1,0,0,1,NONE,45,267
2026-05-27T23:33:18.590,691539,0.97,-0.14,-0.16,-18.2,4.0,11.5,-6.6,44.4,24.9,101.119,35.79,0,1,0,0,1,NONE,34,240
2026-05-27T23:33:18.639,691585,0.96,-0.13,-0.14,-27.8,9.0,8.7,-7.8,44.9,26.1,101.125,35.79,0,1,0,0,1,NONE,73,447
2026-05-27T23:33:18.690,691637,0.99,-0.08,-0.22,-24.1,10.8,11.2,-7.4,46.1,25.2,101.121,35.79,0,0,0,0,0,NONE,70,436
2026-05-27T23:33:18.740,691685,0.95,-0.06,-0.2,-24.2,9.0,9.8,-7.7,46.5,23.5,101.125,35.8,0,0,0,0,0,NONE,78,519
2026-05-27T23:33:18.789,691737,0.94,-0.12,-0.2,-27.6,14.9,7.9,-7.7,47.6,23.5,101.121,35.79,0,0,0,0,0,NONE,90,587
2026-05-27T23:33:18.843,691789,0.92,-0.06,-0.2,-28.1,18.8,4.3,-9.1,48.7,22.8,101.122,35.79,0,0,0,0,0,NONE,81,546
2026-05-27T23:33:18.892,691837,0.93,-0.07,-0.19,-28.6,20.0,-0.4,-8.8,49.3,21.4,101.123,35.79,0,1,0,0,1,NONE,54,345
2026-05-27T23:33:18.945,691885,0.94,-0.12,-0.17,-18.4,20.0,-3.1,-9.5,49.6,22.7,101.121,35.79,0,1,0,0,1,NONE,61,363
2026-05-27T23:33:18.992,691937,0.93,-0.17,-0.15,-37.3,17.9,-7.1,-10.0,51.1,21.1,101.122,35.79,0,1,0,0,1,NONE,52,320
2026-05-27T23:33:19.041,691987,0.91,-0.18,-0.09,-56.3,14.0,-11.4,-10.9,52.0,20.0,101.126,35.79,0,1,0,0,1,NONE,42,221
2026-05-27T23:33:19.089,692035,1.13,-0.18,-0.38,-56.6,25.3,-15.1,-11.3,52.6,19.3,101.123,35.79,0,1,0,0,1,NONE,66,215
2026-05-27T23:33:19.143,692087,0.91,-0.35,-0.36,-38.8,6.3,-0.4,-11.7,54.4,18.8,101.122,35.79,0,1,0,0,1,NONE,39,202
2026-05-27T23:33:19.189,692139,1.12,-0.38,-0.47,-63.0,17.2,1.2,-12.0,54.9,17.4,101.122,35.8,0,1,0,0,1,NONE,28,162
2026-05-27T23:33:19.245,692185,0.89,-0.15,-0.19,-42.5,1.5,6.8,-12.2,56.0,17.1,101.122,35.79,0,1,0,0,1,NONE,21,145
2026-05-27T23:33:19.285,692237,0.91,-0.37,-0.31,-42.1,-12.6,0.0,-11.3,57.0,14.2,101.122,35.79,0,1,0,0,1,NONE,104,423
2026-05-27T23:33:19.334,692285,0.85,-0.29,-0.26,-29.7,-6.9,-0.6,-11.9,56.7,13.3,101.124,35.8,0,1,0,0,1,NONE,259,1244
2026-05-27T23:33:19.389,692337,0.81,-0.39,-0.17,-45.2,-1.8,-0.1,-11.7,58.1,11.4,101.122,35.79,0,1,0,0,1,NONE,236,1164
2026-05-27T23:33:19.442,692387,0.86,-0.32,-0.21,-42.7,-19.6,7.6,-11.1,58.2,11.3,101.121,35.79,0,1,0,0,1,NONE,101,682
2026-05-27T23:33:19.490,692435,0.87,-0.33,-0.17,-42.4,1.8,9.3,-11.0,58.0,9.4,101.12,35.8,0,1,0,0,1,NONE,84,582
2026-05-27T23:33:19.543,692487,0.86,-0.32,-0.14,-37.7,9.2,8.9,-10.4,58.8,7.9,101.121,35.79,0,1,0,0,1,NONE,99,575
2026-05-27T23:33:19.584,692539,0.91,-0.3,-0.12,-38.8,15.8,11.7,-10.4,59.2,6.7,101.12,35.8,0,1,0,0,1,NONE,46,271
2026-05-27T23:33:19.633,692585,0.93,-0.29,-0.13,-27.0,17.4,14.6,-10.1,59.4,5.6,101.12,35.79,0,1,0,0,1,NONE,82,464
2026-05-27T23:33:19.681,692639,0.89,-0.27,-0.11,-23.8,7.8,15.7,-10.2,59.6,4.8,101.122,35.79,0,1,0,0,1,NONE,68,399
2026-05-27T23:33:19.734,692685,0.94,-0.23,-0.06,-13.7,8.5,14.0,-9.7,59.5,5.4,101.119,35.79,0,1,0,0,1,NONE,62,337
2026-05-27T23:33:19.793,692737,0.95,-0.32,-0.06,-11.8,14.9,14.8,-9.6,59.7,4.0,101.12,35.79,0,1,0,0,1,NONE,78,478
2026-05-27T23:33:19.843,692789,0.88,-0.28,-0.07,-6.8,11.5,23.7,-9.1,59.5,4.3,101.122,35.79,0,1,0,0,1,NONE,139,687
2026-05-27T23:33:19.890,692837,0.95,-0.25,-0.11,-32.6,26.7,29.1,-8.9,59.1,2.8,101.124,35.79,0,1,0,0,1,NONE,124,850
2026-05-27T23:33:19.940,692885,0.97,-0.25,-0.2,-5.9,16.6,23.2,-7.7,59.5,1.9,101.121,35.79,0,1,0,0,1,NONE,142,832
2026-05-27T23:33:19.988,692937,0.9,-0.27,-0.13,-19.3,25.3,14.8,-6.9,59.4,1.2,101.124,35.8,0,1,0,0,1,NONE,151,792
2026-05-27T23:33:20.038,692987,1.05,-0.28,-0.26,-23.9,30.7,13.4,-6.8,59.5,1.2,101.123,35.8,0,1,0,0,1,NONE,121,686
2026-05-27T23:33:20.084,693035,0.89,-0.07,-0.25,-11.9,15.9,17.6,-6.9,59.8,1.1,101.124,35.8,0,1,0,0,1,NONE,126,634
2026-05-27T23:33:20.145,693087,0.97,-0.15,-0.2,-0.5,13.2,10.8,-6.4,59.6,1.4,101.124,35.8,0,1,0,0,1,NONE,178,1041
2026-05-27T23:33:20.194,693139,1.03,-0.08,-0.15,-17.6,22.3,9.8,-6.6,59.6,2.1,101.121,35.79,0,1,0,0,1,NONE,100,775
2026-05-27T23:33:20.239,693185,0.97,-0.1,-0.27,-28.2,13.7,8.5,-6.5,59.8,0.5,101.123,35.8,0,1,0,0,1,NONE,73,516
2026-05-27T23:33:20.289,693237,0.93,-0.12,-0.19,-29.2,9.6,9.3,-5.9,60.1,0.4,101.125,35.8,0,1,0,0,1,NONE,123,707
2026-05-27T23:33:20.336,693285,0.91,-0.11,-0.22,-39.1,11.1,7.1,-6.6,59.6,-1.7,101.122,35.8,0,1,0,0,1,NONE,188,877
2026-05-27T23:33:20.387,693337,0.87,-0.11,-0.2,-38.1,12.5,3.7,-6.1,59.8,-2.9,101.123,35.79,0,1,0,0,1,NONE,170,1011
2026-05-27T23:33:20.444,693389,0.95,-0.13,-0.25,-38.7,16.2,0.2,-6.5,60.1,-4.5,101.123,35.8,0,1,0,0,1,NONE,91,604
2026-05-27T23:33:20.498,693437,0.9,-0.18,-0.13,-52.2,7.3,-4.5,-7.2,60.0,-4.6,101.123,35.8,0,1,0,0,1,NONE,262,1049
2026-05-27T23:33:20.528,693485,0.99,-0.16,-0.13,-50.9,7.1,-12.6,-7.0,59.4,-6.9,101.125,35.8,0,1,0,0,1,NONE,196,940
2026-05-27T23:33:20.592,693537,1.12,-0.02,-0.58,-25.3,19.8,-1.8,-7.5,59.1,-7.8,101.122,35.8,0,1,0,0,1,NONE,67,539
2026-05-27T23:33:20.642,693587,0.98,-0.39,-0.21,-20.0,6.8,-4.3,-7.4,59.3,-8.4,101.12,35.8,0,1,0,0,1,NONE,173,1072
2026-05-27T23:33:20.691,693636,0.94,-0.28,-0.34,-50.2,4.6,-2.3,-7.2,59.2,-8.7,101.123,35.79,0,1,0,0,1,NONE,284,1514
2026-05-27T23:33:20.740,693687,0.91,-0.32,-0.29,-39.4,-0.2,0.2,-7.7,58.8,-9.9,101.123,35.8,0,1,0,0,1,NONE,174,976
2026-05-27T23:33:20.799,693739,0.91,-0.33,-0.22,-28.5,-1.8,-0.6,-8.1,58.4,-12.4,101.122,35.8,0,1,0,0,1,NONE,73,433
2026-05-27T23:33:20.832,693785,0.9,-0.31,-0.21,-21.7,-4.6,-2.0,-7.7,58.1,-12.0,101.123,35.8,0,1,0,0,1,NONE,250,1106
2026-05-27T23:33:20.881,693837,0.9,-0.28,-0.22,-24.4,-6.3,-2.5,-7.9,57.7,-14.2,101.121,35.8,0,1,0,1,2,NONE,185,1107
2026-05-27T23:33:20.941,693885,0.87,-0.3,-0.22,-11.6,-4.0,-2.4,-8.8,58.0,-14.2,101.122,35.79,0,1,0,1,2,NONE,53,371
2026-05-27T23:33:20.993,693937,0.82,-0.34,-0.15,-14.3,-4.5,-0.5,-8.9,57.8,-14.7,101.124,35.8,0,1,0,1,2,NONE,59,306
2026-05-27T23:33:21.042,693989,0.92,-0.38,-0.15,-13.8,3.2,3.0,-8.4,57.0,-15.1,101.119,35.8,0,1,0,1,2,NONE,54,290
2026-05-27T23:33:21.093,694037,0.9,-0.34,-0.12,-22.2,1.2,2.5,-8.3,56.6,-17.2,101.12,35.8,0,1,0,0,1,NONE,70,785
2026-05-27T23:33:21.140,694085,0.87,-0.35,-0.09,-21.4,4.5,4.4,-8.6,56.3,-17.0,101.12,35.79,0,1,0,0,1,NONE,247,1428
2026-05-27T23:33:21.188,694137,0.94,-0.3,-0.13,-17.9,6.8,5.5,-8.3,55.8,-16.7,101.123,35.79,0,1,0,1,2,NONE,224,1289
2026-05-27T23:33:21.237,694187,0.87,-0.29,-0.11,-6.3,9.0,8.9,-8.0,56.0,-18.3,101.124,35.79,0,1,0,1,2,NONE,245,1362
2026-05-27T23:33:21.285,694236,0.93,-0.29,-0.11,-1.2,13.1,10.9,-7.7,55.4,-17.8,101.126,35.8,0,1,0,1,2,NONE,55,372
2026-05-27T23:33:21.334,694287,0.88,-0.37,-0.07,-8.2,16.1,11.1,-7.5,54.9,-18.3,101.121,35.79,0,1,0,1,2,NONE,52,359
2026-05-27T23:33:21.393,694339,0.86,-0.31,-0.08,-16.2,22.7,22.7,-6.9,54.7,-18.8,101.121,35.79,0,1,0,1,2,NONE,182,891
2026-05-27T23:33:21.441,694385,0.91,-0.24,-0.1,3.8,21.5,27.8,-6.0,54.1,-17.2,101.122,35.8,0,1,0,1,2,NONE,50,307
2026-05-27T23:33:21.493,694437,0.95,-0.2,-0.15,7.6,22.2,30.3,-4.8,53.5,-18.7,101.123,35.8,0,1,0,0,1,NONE,86,540
2026-05-27T23:33:21.537,694485,1.06,-0.39,-0.31,2.5,34.4,21.6,-4.3,53.4,-17.5,101.124,35.79,0,1,0,0,1,NONE,140,1016
2026-05-27T23:33:21.588,694537,1.1,-0.17,-0.17,-13.8,26.2,23.4,-3.2,53.3,-16.4,101.121,35.8,0,1,0,0,1,NONE,157,955
2026-05-27T23:33:21.633,694589,0.99,-0.26,-0.21,5.2,14.5,21.1,-2.7,52.7,-16.9,101.12,35.8,0,1,0,0,1,NONE,189,986
2026-05-27T23:33:21.690,694637,1.01,-0.09,-0.31,5.7,9.0,19.7,-2.2,52.6,-17.7,101.124,35.8,0,1,0,1,2,NONE,162,794
2026-05-27T23:33:21.739,694685,0.86,-0.05,-0.26,30.5,1.5,16.7,-1.0,52.3,-18.2,101.121,35.8,0,1,0,1,2,NONE,118,730
2026-05-27T23:33:21.793,694737,0.87,-0.08,-0.25,18.0,2.4,7.0,-0.5,52.6,-15.9,101.12,35.8,0,1,0,0,1,NONE,97,529
2026-05-27T23:33:21.841,694785,1.02,-0.09,-0.26,0.8,12.6,-1.3,-1.1,52.8,-16.3,101.123,35.79,0,1,0,0,1,NONE,61,400
2026-05-27T23:33:21.890,694837,0.9,-0.07,-0.29,-0.3,4.3,-0.9,-0.8,52.9,-16.1,101.121,35.8,0,1,0,0,1,NONE,56,363
2026-05-27T23:33:21.942,694887,0.94,-0.06,-0.23,-4.2,3.7,3.4,-0.9,52.7,-16.1,101.122,35.8,0,1,0,0,1,NONE,58,375
2026-05-27T23:33:21.990,694935,0.92,-0.03,-0.26,-7.0,6.7,0.9,-1.0,52.9,-15.8,101.123,35.8,0,1,0,0,1,NONE,84,734
2026-05-27T23:33:22.045,694987,0.89,-0.05,-0.25,-5.8,2.7,-2.0,-1.1,52.9,-15.7,101.124,35.8,0,1,0,0,1,NONE,216,1436
2026-05-27T23:33:22.086,695039,0.92,-0.07,-0.22,-11.0,9.0,-8.0,-1.9,52.9,-17.0,101.124,35.8,0,1,0,0,1,NONE,150,770
2026-05-27T23:33:22.129,695085,0.97,-0.13,-0.22,-8.2,-0.1,-9.8,-1.5,52.6,-15.3,101.121,35.8,0,1,0,0,1,NONE,146,853
2026-05-27T23:33:22.182,695137,0.92,-0.14,-0.17,-14.3,0.8,-12.5,-2.0,52.5,-16.7,101.123,35.8,0,1,0,1,2,NONE,74,491
2026-05-27T23:33:22.230,695185,0.8,-0.23,-0.12,-43.7,0.1,-17.3,-2.1,53.1,-16.4,101.123,35.8,0,1,0,1,2,NONE,74,378
2026-05-27T23:33:22.292,695237,1.15,-0.04,-0.69,-13.4,37.2,-5.9,-2.4,53.0,-18.3,101.122,35.81,0,1,0,0,1,NONE,168,881
2026-05-27T23:33:22.344,695289,1.05,-0.53,-0.3,-12.5,-1.5,-3.5,-2.0,52.5,-17.9,101.124,35.8,0,1,0,0,1,NONE,263,1498
2026-05-27T23:33:22.388,695334,0.99,-0.13,-0.3,-31.6,0.8,-2.9,-2.0,52.5,-17.9,101.124,35.8,0,1,0,1,2,NONE,177,919
2026-05-27T23:33:22.434,695385,0.96,-0.3,-0.29,-16.7,-6.4,-7.4,-2.9,51.2,-20.1,101.121,35.8,0,1,0,1,2,NONE,99,571
2026-05-27T23:33:22.486,695437,0.84,-0.32,-0.28,-18.1,-8.4,-11.8,-3.8,50.7,-20.5,101.122,35.79,0,1,0,0,1,NONE,63,510
2026-05-27T23:33:22.534,695487,0.84,-0.3,-0.23,-7.8,-7.3,-3.2,-4.2,50.7,-20.3,101.123,35.8,0,1,0,0,1,NONE,107,762
2026-05-27T23:33:22.594,695535,0.87,-0.26,-0.26,-5.7,-3.6,-3.0,-4.4,49.8,-21.6,101.12,35.79,0,1,0,1,2,NONE,102,609
2026-05-27T23:33:22.646,695587,0.92,-0.34,-0.21,-9.9,-3.7,2.1,-4.4,50.7,-22.2,101.123,35.8,0,1,0,1,2,NONE,121,718
2026-05-27T23:33:22.696,695639,0.87,-0.3,-0.2,-2.6,-1.0,1.5,-4.1,50.4,-21.9,101.123,35.8,0,1,0,0,1,NONE,125,642
2026-05-27T23:33:22.740,695685,0.89,-0.36,-0.15,-12.6,-1.6,3.8,-4.7,49.9,-22.2,101.12,35.8,0,1,0,0,1,NONE,95,539
2026-05-27T23:33:22.789,695737,0.88,-0.27,-0.13,-10.6,0.7,6.0,-4.2,50.0,-22.8,101.119,35.8,0,1,0,1,2,NONE,155,876
2026-05-27T23:33:22.840,695785,0.86,-0.3,-0.06,-1.2,7.9,13.2,-4.4,49.5,-21.1,101.119,35.8,0,1,0,1,2,NONE,89,540
2026-05-27T23:33:22.884,695837,0.9,-0.24,-0.26,-1.2,17.9,14.2,-3.1,49.3,-22.7,101.12,35.8,0,1,0,1,2,NONE,83,393
2026-05-27T23:33:22.944,695889,0.87,-0.36,-0.14,3.1,0.6,17.5,-2.5,48.3,-22.6,101.122,35.81,0,1,0,1,2,NONE,99,578
2026-05-27T23:33:22.981,695937,0.91,-0.26,-0.14,5.4,6.8,21.2,-3.3,48.8,-22.4,101.122,35.8,0,1,0,1,2,NONE,72,496
2026-05-27T23:33:23.028,695985,0.91,-0.28,-0.17,13.1,1.3,23.4,-2.8,48.0,-22.7,101.117,35.8,0,1,0,1,2,NONE,88,547
2026-05-27T23:33:23.092,696037,1.0,-0.29,-0.43,20.0,14.6,16.8,-2.2,48.4,-22.9,101.125,35.8,0,1,0,0,1,NONE,72,387
2026-05-27T23:33:23.140,696087,1.08,-0.13,-0.12,-11.8,11.5,13.2,-1.4,48.2,-21.3,101.127,35.8,0,1,0,0,1,NONE,43,274
2026-05-27T23:33:23.191,696135,0.95,-0.11,-0.34,23.2,10.7,9.5,-1.2,48.5,-22.2,101.122,35.8,0,1,0,0,1,NONE,46,258
2026-05-27T23:33:23.243,696187,0.85,-0.03,-0.19,46.4,16.0,11.8,-0.8,49.4,-20.9,101.126,35.8,0,1,0,0,1,NONE,44,211
2026-05-27T23:33:23.284,696239,0.89,-0.2,-0.05,-0.6,20.9,1.3,-1.2,49.4,-20.9,101.121,35.8,0,1,0,0,1,NONE,42,181
2026-05-27T23:33:23.328,696285,0.98,0.03,-0.4,7.4,30.4,1.6,-0.4,49.4,-20.4,101.124,35.8,0,1,0,0,1,NONE,42,195
2026-05-27T23:33:23.393,696337,0.98,-0.08,-0.14,23.9,16.7,2.3,0.4,49.6,-20.7,101.126,35.8,0,1,0,0,1,NONE,45,215
2026-05-27T23:33:23.439,696385,0.92,-0.11,-0.22,-1.6,24.4,-4.3,-0.2,50.4,-19.5,101.124,35.8,0,1,0,0,1,NONE,46,254
2026-05-27T23:33:23.487,696437,0.94,-0.26,-0.16,-11.4,22.3,-7.8,0.5,49.8,-20.4,101.126,35.8,0,1,0,0,1,NONE,40,204
2026-05-27T23:33:23.544,696488,0.84,-0.24,-0.28,-28.2,20.6,-18.5,0.3,50.3,-19.9,101.123,35.79,0,1,0,0,1,NONE,35,191
2026-05-27T23:33:23.583,696537,0.83,-0.24,-0.15,-34.5,11.2,-17.0,0.1,49.3,-20.1,101.122,35.8,0,1,0,0,1,NONE,93,205
2026-05-27T23:33:23.631,696585,1.17,0.08,-0.82,26.1,55.2,-9.5,0.8,49.6,-20.8,101.122,35.8,0,1,0,0,1,NONE,69,201
2026-05-27T23:33:23.683,696637,1.14,-0.6,-0.45,-11.0,9.0,-3.7,0.7,50.3,-19.9,101.12,35.8,0,1,0,0,1,NONE,75,306
2026-05-27T23:33:23.727,696687,0.97,-0.07,-0.49,-5.0,1.8,-2.6,0.5,49.9,-19.7,101.123,35.8,0,1,0,0,1,NONE,41,205
2026-05-27T23:33:23.776,696735,0.9,-0.33,-0.4,-9.3,-8.3,-4.5,0.7,49.4,-20.4,101.124,35.8,0,1,0,0,1,NONE,44,179
2026-05-27T23:33:23.840,696787,0.85,-0.28,-0.38,3.9,-11.3,-8.0,0.1,49.1,-20.8,101.123,35.8,0,1,0,0,1,NONE,35,166
2026-05-27T23:33:23.890,696839,0.83,-0.34,-0.37,-8.2,-14.2,-6.1,-0.8,49.0,-20.2,101.125,35.8,0,1,0,0,1,NONE,44,277
2026-05-27T23:33:23.944,696885,0.84,-0.3,-0.36,-10.4,-12.6,-4.8,-1.2,49.5,-22.0,101.122,35.8,0,1,0,0,1,NONE,71,532
2026-05-27T23:33:23.988,696937,0.82,-0.24,-0.33,-3.2,-12.0,-2.4,-1.6,48.6,-22.6,101.12,35.8,0,1,0,0,1,NONE,86,598
2026-05-27T23:33:24.032,696985,0.86,-0.38,-0.3,-16.6,-2.0,1.3,-2.2,48.9,-22.0,101.12,35.8,0,1,0,0,1,NONE,60,385
2026-05-27T23:33:24.083,697037,0.86,-0.25,-0.34,-0.9,-5.9,4.9,-2.2,48.9,-23.4,101.126,35.8,0,1,0,0,1,NONE,46,276
2026-05-27T23:33:24.144,697088,0.85,-0.33,-0.27,-8.7,-6.0,8.7,-2.3,48.3,-22.3,101.119,35.8,0,1,0,0,1,NONE,52,231
2026-05-27T23:33:24.191,697137,0.88,-0.32,-0.23,-8.5,-5.0,12.3,-2.3,48.2,-22.9,101.118,35.8,0,1,0,0,1,NONE,33,192
2026-05-27T23:33:24.241,697185,0.88,-0.27,-0.22,-1.0,-5.2,18.6,-2.2,47.6,-23.3,101.122,35.8,0,1,0,0,1,NONE,56,427
2026-05-27T23:33:24.287,697237,0.87,-0.18,-0.16,0.9,-14.6,23.2,-1.9,47.4,-24.3,101.123,35.8,0,1,0,0,1,NONE,94,665
2026-05-27T23:33:24.340,697287,0.94,-0.19,-0.08,17.0,-8.2,29.2,-2.0,46.8,-23.6,101.121,35.8,0,1,0,0,1,NONE,52,301
2026-05-27T23:33:24.384,697335,1.04,-0.22,-0.35,25.9,-4.0,22.0,-1.6,46.9,-24.0,101.125,35.8,0,1,0,0,1,NONE,81,583
2026-05-27T23:33:24.441,697387,0.88,-0.1,-0.25,13.5,-14.2,10.7,-1.9,46.9,-24.0,101.124,35.8,0,1,0,0,1,NONE,64,328
2026-05-27T23:33:24.483,697439,1.03,-0.25,-0.19,10.2,10.5,6.2,-2.6,47.2,-22.5,101.124,35.8,0,1,0,1,2,NONE,38,239
2026-05-27T23:33:24.539,697485,0.87,-0.07,-0.39,28.6,18.6,11.5,-1.8,47.1,-23.1,101.121,35.79,0,1,0,1,2,NONE,73,491
2026-05-27T23:33:24.591,697537,0.71,-0.07,-0.17,40.8,10.6,6.9,-2.0,48.2,-23.4,101.125,35.8,0,1,0,1,2,NONE,92,488
2026-05-27T23:33:24.640,697585,1.1,-0.18,-0.12,1.6,55.4,3.2,-1.7,48.5,-22.3,101.125,35.8,0,1,0,1,2,NONE,75,377
2026-05-27T23:33:24.690,697637,0.95,-0.09,-0.28,2.1,17.0,2.3,-0.3,48.4,-21.3,101.123,35.81,0,1,0,0,1,NONE,93,335
2026-05-27T23:33:24.741,697686,1.0,-0.19,-0.09,-16.4,27.2,-2.9,0.1,48.4,-19.8,101.126,35.8,0,1,0,0,1,NONE,72,484
2026-05-27T23:33:24.787,697735,1.1,-0.23,-0.1,-41.1,10.0,-14.2,0.7,47.5,-20.8,101.12,35.8,0,1,0,1,2,NONE,166,1142
2026-05-27T23:33:24.835,697787,1.08,-0.01,-0.16,-39.6,-3.2,-20.3,0.3,47.9,-20.5,101.121,35.8,0,1,0,1,2,NONE,166,989
2026-05-27T23:33:24.886,697835,1.02,0.03,-0.68,-5.2,15.4,-16.4,-0.9,47.1,-22.8,101.12,35.8,0,1,0,1,2,NONE,177,1254
2026-05-27T23:33:24.942,697887,0.9,-0.38,-0.2,73.6,-45.6,0.5,-0.7,47.2,-23.7,101.12,35.79,0,1,0,1,2,NONE,65,584
2026-05-27T23:33:24.994,697938,1.04,-0.3,-0.49,30.3,-7.4,0.2,-1.6,48.6,-21.7,101.12,35.8,0,1,0,1,2,NONE,45,279
2026-05-27T23:33:25.040,697987,0.92,-0.31,-0.34,14.1,-19.2,-7.8,-2.8,48.7,-23.4,101.124,35.8,0,1,0,1,2,NONE,84,553
2026-05-27T23:33:25.088,698035,0.81,-0.26,-0.26,3.2,-19.1,-12.5,-3.1,49.2,-22.1,101.12,35.8,0,1,1,1,3,NONE,78,511
2026-05-27T23:33:25.135,698087,0.85,-0.27,-0.27,19.0,-10.1,-8.3,-3.6,49.4,-22.6,101.124,35.8,0,1,1,1,3,NONE,42,260
2026-05-27T23:33:25.193,698139,0.87,-0.36,-0.24,1.4,-6.1,-8.4,-4.2,49.6,-22.7,101.122,35.81,0,1,0,1,2,NONE,63,320
2026-05-27T23:33:25.241,698185,0.87,-0.31,-0.25,-14.2,-5.5,-5.5,-4.9,50.1,-23.4,101.122,35.8,0,1,0,1,2,NONE,92,507
2026-05-27T23:33:25.294,698239,0.94,-0.3,-0.22,-7.9,-2.0,-0.4,-4.8,49.9,-22.0,101.121,35.8,0,1,0,1,2,NONE,54,319
2026-05-27T23:33:25.328,698285,0.92,-0.31,-0.19,-12.3,-10.1,1.4,-5.1,49.2,-23.7,101.126,35.8,0,1,0,1,2,NONE,75,385
2026-05-27T23:33:25.393,698337,0.92,-0.3,-0.17,-16.2,-7.3,3.3,-5.3,49.5,-23.8,101.121,35.8,0,1,0,1,2,NONE,57,328
2026-05-27T23:33:25.437,698389,0.89,-0.27,-0.13,-10.2,-11.4,7.8,-5.7,48.6,-24.4,101.121,35.8,0,1,0,1,2,NONE,33,183
2026-05-27T23:33:25.492,698436,0.85,-0.28,-0.09,-9.8,-4.0,10.5,-5.7,48.0,-25.0,101.122,35.8,0,1,0,1,2,NONE,41,184
2026-05-27T23:33:25.537,698485,0.86,-0.18,-0.12,5.4,6.9,15.5,-6.1,47.2,-25.8,101.122,35.8,0,1,0,1,2,NONE,63,366
2026-05-27T23:33:25.581,698537,0.99,-0.28,-0.1,16.9,-3.6,11.5,-5.2,47.3,-25.6,101.124,35.8,0,1,0,1,2,NONE,57,346
2026-05-27T23:33:25.629,698585,0.94,-0.3,-0.05,13.7,-2.7,11.0,-4.7,47.6,-24.5,101.12,35.8,0,1,0,1,2,NONE,46,233
2026-05-27T23:33:25.694,698637,0.92,-0.37,-0.08,15.1,-7.3,7.6,-5.5,47.6,-24.0,101.124,35.79,0,1,0,1,2,NONE,43,107
2026-05-27T23:33:25.742,698687,1.08,-0.38,-0.29,8.7,16.5,2.7,-5.0,47.5,-24.5,101.123,35.8,0,1,0,1,2,NONE,33,186
2026-05-27T23:33:25.788,698735,0.94,-0.09,-0.18,3.1,-1.2,21.5,-4.8,47.8,-24.9,101.121,35.8,0,1,0,0,1,NONE,58,341
2026-05-27T23:33:25.838,698787,0.83,-0.02,-0.19,65.2,8.0,18.7,-4.7,47.4,-25.5,101.122,35.8,0,1,0,0,1,NONE,57,302
2026-05-27T23:33:25.888,698839,0.87,-0.04,-0.11,54.4,11.4,11.2,-4.8,51.9,-22.8,101.123,35.8,0,1,0,1,2,NONE,92,440
2026-05-27T23:33:25.933,698887,0.97,-0.24,-0.07,18.9,44.6,-1.9,-4.8,51.9,-22.8,101.124,35.8,0,1,0,1,2,NONE,109,597
2026-05-27T23:33:25.985,698935,0.8,-0.2,-0.35,0.2,36.3,-0.2,-3.6,51.2,-20.3,101.121,35.8,0,1,0,0,1,NONE,58,340
2026-05-27T23:33:26.029,698987,1.12,0.04,-0.33,-27.6,61.6,-1.2,-2.6,50.7,-19.8,101.121,35.8,0,1,0,0,1,NONE,90,568
2026-05-27T23:33:26.094,699039,0.97,-0.1,-0.18,-13.9,35.9,-7.8,-1.8,49.9,-20.4,101.121,35.8,0,1,0,0,1,NONE,91,344
2026-05-27T23:33:26.141,699087,1.12,-0.21,-0.12,-4.1,4.3,-9.6,-2.6,49.8,-20.3,101.124,35.8,0,1,0,0,1,NONE,63,350
2026-05-27T23:33:26.189,699135,0.87,-0.21,0.05,-30.3,2.1,-14.5,-2.4,50.1,-19.8,101.124,35.8,0,1,0,1,2,NONE,43,229
2026-05-27T23:33:26.242,699187,0.89,-0.21,-0.31,-38.7,-0.4,-24.1,-3.8,49.6,-20.2,101.121,35.8,0,1,0,1,2,NONE,85,251
2026-05-27T23:33:26.294,699239,1.03,-0.37,-0.37,21.0,-20.4,-2.1,-2.3,49.5,-21.1,101.125,35.81,0,1,0,0,1,NONE,125,150
2026-05-27T23:33:26.338,699285,1.0,-0.42,-0.45,-7.0,14.7,-4.0,-2.7,50.0,-19.9,101.123,35.8,0,1,0,0,1,NONE,31,172
2026-05-27T23:33:26.395,699339,0.96,-0.33,-0.57,7.6,-4.2,-4.0,-2.7,50.4,-20.3,101.12,35.8,0,1,0,1,2,NONE,45,347
2026-05-27T23:33:26.438,699385,0.82,-0.32,-0.33,0.9,-27.8,-7.8,-3.0,50.5,-21.7,101.12,35.8,0,1,0,1,2,NONE,44,310
2026-05-27T23:33:26.488,699437,0.8,-0.27,-0.28,-5.3,-14.0,-5.3,-3.4,50.4,-20.8,101.127,35.8,0,1,0,0,1,NONE,44,224
2026-05-27T23:33:26.532,699489,0.86,-0.35,-0.34,-12.7,-1.2,-6.0,-4.0,50.4,-21.9,101.122,35.8,0,1,0,0,1,NONE,40,195
2026-05-27T23:33:26.592,699537,0.88,-0.27,-0.29,2.3,-4.8,1.1,-4.0,50.3,-21.3,101.122,35.8,0,1,0,1,2,NONE,51,255
2026-05-27T23:33:26.633,699585,0.88,-0.34,-0.33,-0.1,-9.4,0.9,-5.0,49.9,-22.4,101.121,35.8,0,1,0,1,2,NONE,36,234
2026-05-27T23:33:26.691,699637,0.84,-0.37,-0.28,-17.5,-6.5,3.9,-4.8,49.9,-22.8,101.121,35.8,0,1,0,1,2,NONE,44,290
2026-05-27T23:33:26.741,699687,0.89,-0.29,-0.22,-16.8,-11.7,9.5,-5.1,48.4,-23.6,101.121,35.8,0,1,0,1,2,NONE,34,211
2026-05-27T23:33:26.787,699736,0.89,-0.3,-0.21,-8.2,-6.4,12.8,-5.1,48.4,-24.1,101.126,35.8,0,1,0,1,2,NONE,39,246
2026-05-27T23:33:26.835,699787,0.91,-0.3,-0.19,-12.0,-5.4,11.0,-5.0,47.7,-22.9,101.121,35.8,0,1,0,1,2,NONE,33,205
2026-05-27T23:33:26.897,699839,0.88,-0.26,-0.18,-8.9,-3.4,8.5,-4.9,47.7,-24.3,101.123,35.8,0,1,0,1,2,NONE,60,473
2026-05-27T23:33:26.933,699885,0.91,-0.28,-0.13,0.4,-3.5,6.0,-5.5,47.6,-23.4,101.124,35.8,0,1,0,1,2,NONE,117,557
2026-05-27T23:33:26.993,699937,0.87,-0.24,-0.18,15.2,2.7,9.0,-5.2,47.8,-23.2,101.12,35.8,0,1,0,1,2,NONE,49,269
2026-05-27T23:33:27.041,699985,0.95,-0.29,-0.1,17.2,-1.9,10.3,-5.6,47.9,-23.1,101.122,35.8,0,1,0,1,2,NONE,58,306
2026-05-27T23:33:27.089,700037,0.95,-0.3,-0.09,16.8,-4.3,16.3,-5.5,47.7,-22.6,101.121,35.8,0,1,0,1,2,NONE,53,355
2026-05-27T23:33:27.143,700089,0.98,-0.23,-0.21,27.2,2.9,16.4,-5.2,47.5,-24.1,101.122,35.8,0,1,0,1,2,NONE,104,635
2026-05-27T23:33:27.189,700137,0.92,-0.35,-0.26,18.0,8.0,5.9,-5.5,48.3,-23.6,101.124,35.8,0,1,0,1,2,NONE,82,532
2026-05-27T23:33:27.237,700185,1.08,-0.26,-0.24,0.9,14.3,14.8,-5.2,48.5,-23.2,101.122,35.8,0,1,0,1,2,NONE,106,395
2026-05-27T23:33:27.279,700237,0.89,-0.07,-0.24,49.5,-9.1,21.1,-4.8,48.9,-22.5,101.124,35.8,0,1,0,1,2,NONE,33,198
2026-05-27T23:33:27.337,700287,0.82,-0.03,-0.21,21.8,-1.5,8.9,-5.2,49.8,-22.7,101.122,35.8,0,1,0,1,2,NONE,48,244
2026-05-27T23:33:27.391,700336,0.87,-0.17,-0.08,20.2,16.8,4.5,-5.1,49.4,-21.3,101.121,35.8,0,1,0,0,1,NONE,208,699
2026-05-27T23:33:27.441,700387,0.99,-0.11,-0.25,-6.4,17.2,5.0,-4.5,49.9,-20.3,101.124,35.8,0,1,0,0,1,NONE,233,885
2026-05-27T23:33:27.495,700439,0.93,-0.06,-0.16,24.3,10.6,3.5,-5.1,49.3,-22.1,101.121,35.81,0,1,0,0,1,NONE,334,1276
2026-05-27T23:33:27.537,700485,0.94,-0.14,-0.17,1.2,17.5,2.1,-4.3,50.3,-20.8,101.123,35.8,0,1,0,0,1,NONE,102,434
2026-05-27T23:33:27.585,700537,0.9,-0.13,-0.16,-3.9,23.9,-2.6,-3.9,49.7,-21.0,101.124,35.79,0,1,0,0,1,NONE,166,654
2026-05-27T23:33:27.633,700585,0.94,-0.12,-0.21,-9.0,27.8,-5.5,-3.3,50.0,-20.8,101.121,35.8,0,1,0,0,1,NONE,120,538
2026-05-27T23:33:27.693,700637,0.99,-0.14,-0.16,-10.4,22.5,-11.9,-3.0,49.7,-21.3,101.124,35.8,0,1,0,0,1,NONE,198,966
2026-05-27T23:33:27.743,700689,0.89,-0.29,-0.05,-27.8,11.1,-16.8,-3.3,50.0,-19.5,101.123,35.8,0,1,0,0,1,NONE,299,1086
2026-05-27T23:33:27.792,700737,1.19,0.08,-0.7,-0.5,43.5,-4.0,-3.3,49.2,-21.3,101.122,35.8,0,1,0,0,1,NONE,69,355
2026-05-27T23:33:27.841,700785,0.91,-0.41,-0.29,3.3,3.7,1.6,-2.9,49.8,-21.6,101.122,35.8,0,1,0,0,1,NONE,28,208
2026-05-27T23:33:27.888,700837,0.99,-0.01,-0.46,-5.0,12.9,2.7,-2.7,49.7,-22.1,101.12,35.8,0,1,0,0,1,NONE,32,154
2026-05-27T23:33:27.935,700887,0.92,-0.34,-0.4,-7.6,-1.5,-5.4,-3.1,49.4,-21.7,101.125,35.8,0,1,0,0,1,NONE,36,248
2026-05-27T23:33:27.983,700935,0.87,-0.28,-0.33,-4.7,-5.2,-6.6,-3.4,49.2,-21.6,101.12,35.8,0,1,0,0,1,NONE,48,292
2026-05-27T23:33:28.034,700987,0.9,-0.26,-0.28,-1.4,-1.8,-4.2,-3.4,49.0,-21.3,101.118,35.8,0,1,0,0,1,NONE,48,269
2026-05-27T23:33:28.094,701039,0.82,-0.28,-0.36,3.9,-6.5,-2.1,-3.6,49.1,-21.4,101.122,35.8,0,1,0,0,1,NONE,31,188
2026-05-27T23:33:28.139,701085,0.85,-0.37,-0.32,-10.4,4.5,-2.3,-4.1,48.7,-21.5,101.119,35.8,0,1,0,0,1,NONE,32,177
2026-05-27T23:33:28.192,701137,0.87,-0.34,-0.36,-19.1,-2.9,-0.7,-3.9,48.8,-23.0,101.123,35.8,0,1,0,0,1,NONE,27,134
2026-05-27T23:33:28.240,701185,0.89,-0.29,-0.28,-6.4,-1.6,3.1,-4.4,47.5,-23.1,101.124,35.8,0,1,0,0,1,NONE,22,123
2026-05-27T23:33:28.290,701237,0.89,-0.26,-0.28,-8.4,1.2,0.9,-4.4,47.9,-23.7,101.12,35.8,0,1,0,0,1,NONE,30,173
2026-05-27T23:33:28.338,701288,0.88,-0.28,-0.26,7.6,-3.2,1.0,-4.3,47.5,-24.4,101.122,35.8,0,1,0,0,1,NONE,45,188
2026-05-27T23:33:28.382,701337,0.87,-0.34,-0.27,-6.7,-0.5,-1.2,-4.9,47.2,-23.1,101.123,35.8,0,1,0,0,1,NONE,34,212
2026-05-27T23:33:28.438,701385,0.86,-0.37,-0.23,-8.6,1.9,5.8,-4.7,46.9,-24.1,101.123,35.8,0,1,0,0,1,NONE,36,181
2026-05-27T23:33:28.492,701437,0.88,-0.34,-0.25,-16.2,-0.1,9.7,-4.5,46.6,-23.1,101.126,35.8,0,1,0,0,1,NONE,40,221
2026-05-27T23:33:28.541,701487,0.88,-0.28,-0.17,1.4,-2.5,16.2,-4.9,46.1,-24.9,101.119,35.8,0,1,0,0,1,NONE,29,211
2026-05-27T23:33:28.589,701536,0.91,-0.27,-0.15,11.7,-6.2,27.1,-4.7,45.8,-25.2,101.123,35.8,0,1,0,0,1,NONE,34,221
2026-05-27T23:33:28.641,701587,1.27,-0.48,-0.34,42.7,6.0,31.5,-4.2,45.7,-23.8,101.121,35.8,0,1,0,0,1,NONE,33,216
2026-05-27T23:33:28.689,701639,0.82,-0.03,-0.23,-11.4,-22.7,24.2,-3.5,45.7,-24.4,101.123,35.8,0,1,0,0,1,NONE,37,188
2026-05-27T23:33:28.737,701685,0.74,0.0,-0.21,41.1,6.0,16.2,-4.1,45.8,-24.7,101.122,35.8,0,1,0,0,1,NONE,35,209
2026-05-27T23:33:28.794,701739,0.96,-0.08,-0.25,6.6,18.7,4.8,-3.7,46.5,-24.0,101.124,35.81,0,1,0,0,1,NONE,71,369
2026-05-27T23:33:28.832,701785,0.93,-0.08,-0.2,-5.6,22.9,0.2,-3.9,46.9,-24.3,101.124,35.8,0,1,0,0,1,NONE,56,305
2026-05-27T23:33:28.892,701837,0.93,-0.05,-0.26,16.1,21.8,3.9,-3.4,46.4,-23.4,101.121,35.8,0,1,0,0,1,NONE,63,400
2026-05-27T23:33:28.944,701889,0.95,-0.13,-0.2,14.9,18.5,-0.2,-2.8,46.3,-22.0,101.126,35.8,0,1,0,0,1,NONE,63,353
2026-05-27T23:33:28.992,701937,0.92,-0.12,-0.22,-7.8,25.1,-2.7,-2.5,47.5,-22.6,101.122,35.8,0,1,0,0,1,NONE,61,353
2026-05-27T23:33:29.043,701985,0.95,-0.09,-0.19,4.4,17.1,-6.8,-2.3,46.9,-21.4,101.121,35.8,0,1,0,0,1,NONE,46,210
2026-05-27T23:33:29.093,702037,0.94,-0.12,-0.21,3.8,16.2,-10.9,-1.9,47.7,-21.7,101.123,35.8,0,1,0,0,1,NONE,79,405
2026-05-27T23:33:29.132,702087,0.88,-0.24,-0.17,-20.0,6.5,-17.2,-2.4,47.1,-22.5,101.123,35.8,0,1,0,0,1,NONE,73,458
2026-05-27T23:33:29.183,702136,0.98,-0.16,-0.34,-29.8,28.0,-16.0,-3.1,47.6,-23.5,101.123,35.8,0,1,0,0,1,NONE,97,575
2026-05-27T23:33:29.239,702187,1.06,-0.41,-0.52,-7.5,-8.5,1.4,-1.9,47.1,-22.3,101.118,35.8,0,1,0,0,1,NONE,34,229
2026-05-27T23:33:29.294,702239,1.03,-0.16,-0.46,-1.7,-1.3,7.6,-1.9,46.5,-22.5,101.124,35.8,0,1,0,0,1,NONE,134,677
2026-05-27T23:33:29.340,702285,0.95,-0.28,-0.43,26.5,-8.9,0.6,-2.5,46.4,-22.1,101.124,35.8,0,1,0,0,1,NONE,113,717
2026-05-27T23:33:29.389,702337,0.86,-0.4,-0.38,-11.2,-8.2,-8.4,-2.2,46.6,-22.5,101.125,35.8,0,0,0,0,0,NONE,77,400
2026-05-27T23:33:29.436,702386,0.82,-0.26,-0.34,3.2,-11.0,-2.6,-2.2,46.6,-22.5,101.124,35.8,0,0,0,0,0,NONE,70,399
2026-05-27T23:33:29.484,702437,0.85,-0.28,-0.38,-0.4,-8.6,-2.5,-4.4,46.9,-23.6,101.125,35.8,0,1,0,0,1,NONE,68,348
2026-05-27T23:33:29.536,702489,0.84,-0.29,-0.34,-0.2,-7.6,-2.4,-4.6,46.8,-22.8,101.123,35.8,0,1,0,0,1,NONE,37,222
2026-05-27T23:33:29.584,702537,0.86,-0.32,-0.34,-10.2,-4.6,-3.2,-4.7,47.1,-23.8,101.124,35.8,0,1,0,0,1,NONE,67,503
2026-05-27T23:33:29.640,702585,0.89,-0.33,-0.31,-18.2,-3.1,-0.7,-5.0,45.6,-23.8,101.124,35.8,0,1,0,0,1,NONE,93,694
2026-05-27T23:33:29.693,702637,0.87,-0.3,-0.28,-10.3,-5.3,2.7,-4.7,45.5,-25.0,101.12,35.8,0,1,0,0,1,NONE,68,381
2026-05-27T23:33:29.741,702687,0.85,-0.37,-0.24,-18.7,1.5,3.7,-5.2,44.7,-24.2,101.126,35.8,0,1,0,0,1,NONE,37,234
2026-05-27T23:33:29.786,702735,0.89,-0.3,-0.21,-14.7,-0.1,5.6,-5.4,44.4,-24.9,101.124,35.81,0,0,0,0,0,NONE,41,234
2026-05-27T23:33:29.834,702787,0.92,-0.25,-0.29,-25.1,-6.8,3.6,-5.3,44.7,-25.7,101.123,35.8,0,0,0,0,0,NONE,44,276
2026-05-27T23:33:29.887,702839,0.88,-0.34,-0.13,2.1,-10.6,12.4,-5.7,44.2,-26.8,101.123,35.8,0,1,0,0,1,NONE,34,214
2026-05-27T23:33:29.935,702885,0.89,-0.27,-0.21,4.8,-8.1,19.7,-5.4,43.6,-26.0,101.12,35.8,0,1,0,0,1,NONE,24,143
2026-05-27T23:33:29.995,702937,0.89,-0.31,-0.13,16.2,-5.3,22.1,-6.3,43.3,-25.5,101.124,35.8,0,1,0,0,1,NONE,36,143
2026-05-27T23:33:30.035,702985,1.04,-0.37,-0.19,7.0,6.4,25.9,-5.8,43.1,-26.9,101.121,35.8,0,1,0,0,1,NONE,36,177
2026-05-27T23:33:30.089,703037,0.93,-0.33,-0.3,-26.9,10.9,25.8,-4.7,42.3,-27.4,101.123,35.8,0,1,0,0,1,NONE,25,149
2026-05-27T23:33:30.137,703089,0.99,-0.1,-0.16,-5.4,4.7,33.0,-4.7,41.9,-26.3,101.121,35.79,0,1,0,0,1,NONE,27,131
2026-05-27T23:33:30.189,703137,0.89,0.01,-0.3,17.8,8.4,26.9,-4.3,41.5,-26.5,101.123,35.8,0,1,0,0,1,NONE,27,156
2026-05-27T23:33:30.244,703189,0.85,0.04,-0.21,32.3,1.5,13.7,-4.2,41.9,-25.4,101.122,35.8,0,1,0,0,1,NONE,58,290
2026-05-27T23:33:30.290,703235,0.86,-0.03,-0.12,25.6,12.0,-2.5,-3.7,42.8,-26.7,101.121,35.8,0,1,0,0,1,NONE,45,233
2026-05-27T23:33:30.337,703287,1.03,-0.09,-0.21,6.6,21.7,-3.4,-4.0,43.6,-25.4,101.122,35.8,0,1,0,0,1,NONE,26,154
2026-05-27T23:33:30.390,703336,0.94,-0.05,-0.21,13.5,15.1,-2.0,-3.6,43.6,-27.2,101.126,35.81,0,0,0,0,0,NONE,29,122
2026-05-27T23:33:30.441,703387,0.93,-0.05,-0.15,11.8,17.8,-2.9,-3.8,43.7,-26.0,101.123,35.8,0,0,0,0,0,NONE,18,99
2026-05-27T23:33:30.490,703439,0.91,-0.12,-0.13,6.0,24.0,-8.9,-2.9,44.7,-24.5,101.124,35.8,0,0,0,0,0,NONE,54,362
2026-05-27T23:33:30.540,703485,1.0,-0.11,-0.18,0.4,14.9,-15.5,-3.3,44.4,-24.5,101.125,35.8,0,0,0,0,0,NONE,64,389
2026-05-27T23:33:30.590,703537,0.96,-0.22,-0.04,-3.2,-1.7,-18.6,-3.5,43.6,-25.6,101.122,35.8,0,1,0,0,1,NONE,47,321
2026-05-27T23:33:30.631,703585,1.1,0.0,-0.36,10.1,9.9,-17.5,-3.9,45.2,-24.8,101.121,35.8,0,1,0,0,1,NONE,55,324
2026-05-27T23:33:30.690,703637,1.04,-0.33,-0.32,16.5,-6.5,-4.0,-4.2,45.4,-25.0,101.128,35.8,0,0,0,0,0,NONE,72,424
2026-05-27T23:33:30.727,703687,0.99,-0.17,-0.43,-10.0,8.1,-2.0,-4.4,45.9,-25.2,101.123,35.8,0,0,0,0,0,NONE,52,331
2026-05-27T23:33:30.790,703735,0.95,-0.15,-0.39,16.5,-4.0,1.3,-4.5,45.6,-25.0,101.121,35.8,0,1,0,0,1,NONE,53,309
2026-05-27T23:33:30.839,703787,0.92,-0.31,-0.38,-4.8,1.3,-7.9,-4.5,45.4,-24.5,101.121,35.8,0,1,0,0,1,NONE,52,290
2026-05-27T23:33:30.895,703839,0.83,-0.2,-0.32,3.0,-7.9,-5.6,-5.6,45.8,-24.6,101.123,35.79,0,0,0,0,0,NONE,30,153
2026-05-27T23:33:30.937,703885,0.89,-0.25,-0.31,-1.0,-3.6,-7.3,-5.5,45.7,-24.8,101.124,35.8,0,0,0,0,0,NONE,53,280
2026-05-27T23:33:30.991,703937,0.92,-0.28,-0.29,-2.4,-6.3,-4.5,-5.4,45.9,-24.6,101.125,35.8,0,1,0,0,1,NONE,167,721
2026-05-27T23:33:31.035,703985,0.88,-0.23,-0.3,3.0,-5.9,-4.2,-6.3,45.8,-25.8,101.124,35.8,0,1,0,0,1,NONE,40,292
2026-05-27T23:33:31.091,704037,0.9,-0.25,-0.24,1.3,-7.0,-2.9,-6.4,45.7,-25.0,101.122,35.8,0,1,0,0,1,NONE,24,152
2026-05-27T23:33:31.144,704089,0.87,-0.3,-0.25,1.5,-4.9,-1.8,-6.6,45.7,-24.8,101.12,35.8,0,1,0,0,1,NONE,30,180
2026-05-27T23:33:31.192,704137,0.92,-0.23,-0.21,13.1,-2.1,1.8,-7.5,45.7,-25.7,101.12,35.8,0,0,0,0,0,NONE,30,197
2026-05-27T23:33:31.239,704188,0.9,-0.32,-0.19,6.2,-1.1,0.7,-6.7,46.1,-26.9,101.124,35.8,0,0,0,0,0,NONE,38,232
2026-05-27T23:33:31.287,704235,0.88,-0.34,-0.16,1.8,-3.8,5.4,-7.1,45.5,-25.7,101.119,35.8,0,0,0,0,0,NONE,30,210
2026-05-27T23:33:31.336,704289,0.91,-0.21,-0.17,19.0,2.4,9.6,-7.6,45.9,-25.8,101.122,35.8,0,0,0,0,0,NONE,28,198
2026-05-27T23:33:31.388,704337,0.97,-0.26,-0.15,19.3,-4.5,13.1,-7.8,46.6,-24.7,101.119,35.8,0,0,0,0,0,NONE,44,211
2026-05-27T23:33:31.436,704389,0.89,-0.23,-0.14,29.6,8.5,12.1,-7.5,46.8,-25.9,101.122,35.8,0,0,0,0,0,NONE,31,214
2026-05-27T23:33:31.485,704436,1.07,-0.21,-0.32,28.4,10.1,17.2,-7.5,47.5,-24.0,101.121,35.8,0,0,0,0,0,NONE,39,182
2026-05-27T23:33:31.542,704488,0.9,-0.11,-0.42,32.9,7.1,14.3,-6.7,48.5,-23.4,101.124,35.8,0,0,0,0,0,NONE,30,164
2026-05-27T23:33:31.576,704535,0.84,0.05,-0.31,51.2,6.7,14.7,-7.0,48.5,-23.9,101.121,35.8,0,0,0,0,0,NONE,27,175
2026-05-27T23:33:31.644,704589,0.95,-0.07,-0.27,75.0,19.3,8.5,-6.9,50.1,-22.7,101.121,35.8,0,0,0,0,0,NONE,26,76
2026-05-27T23:33:31.690,704635,0.99,-0.18,-0.23,41.0,10.3,-1.0,-5.9,51.5,-21.3,101.124,35.8,0,0,0,0,0,NONE,26,132
2026-05-27T23:33:31.740,704685,1.02,-0.16,-0.24,25.3,14.6,-2.3,-6.2,52.1,-21.1,101.124,35.8,0,0,0,0,0,NONE,53,252
2026-05-27T23:33:31.787,704735,0.98,0.03,-0.29,33.6,5.4,-1.8,-6.1,52.6,-20.0,101.123,35.8,0,0,0,0,0,NONE,63,399
2026-05-27T23:33:31.838,704787,0.9,-0.05,-0.22,32.5,4.5,-4.7,-6.4,53.5,-20.8,101.124,35.8,0,0,0,0,0,NONE,36,250
2026-05-27T23:33:31.891,704835,0.91,-0.12,-0.22,19.7,7.8,-10.8,-6.7,54.4,-19.4,101.125,35.8,0,0,0,0,0,NONE,37,201
2026-05-27T23:33:31.943,704887,0.92,-0.17,-0.21,8.7,4.2,-17.1,-7.6,54.4,-17.8,101.121,35.8,0,0,0,0,0,NONE,37,206
2026-05-27T23:33:31.989,704937,0.98,-0.15,-0.21,-2.7,-4.2,-22.1,-7.4,54.6,-18.4,101.123,35.8,0,0,0,0,0,NONE,42,222
2026-05-27T23:33:32.037,704985,0.91,-0.18,-0.16,-7.9,-6.8,-22.6,-9.0,55.4,-17.8,101.121,35.8,0,0,0,0,0,NONE,45,186
2026-05-27T23:33:32.084,705037,1.06,-0.06,-0.42,18.7,4.1,-12.6,-9.3,54.9,-17.8,101.123,35.8,0,0,0,0,0,NONE,25,131
2026-05-27T23:33:32.143,705088,1.05,-0.32,-0.32,2.8,-4.6,-11.3,-10.2,55.3,-19.4,101.121,35.8,0,0,0,0,0,NONE,40,176
2026-05-27T23:33:32.187,705135,0.93,-0.2,-0.38,-5.7,-3.4,-6.7,-10.3,56.1,-18.7,101.123,35.8,0,0,0,0,0,NONE,23,158
2026-05-27T23:33:32.245,705189,0.91,-0.21,-0.34,13.5,-11.5,-4.3,-11.1,55.7,-18.4,101.12,35.81,0,0,0,0,0,NONE,29,183
2026-05-27T23:33:32.280,705235,0.88,-0.28,-0.32,11.1,-6.9,-10.6,-11.6,56.2,-17.5,101.126,35.8,0,0,0,0,0,NONE,37,226
2026-05-27T23:33:32.340,705285,0.88,-0.25,-0.28,8.8,-10.6,-10.9,-12.5,56.2,-18.0,101.119,35.8,0,0,0,0,0,NONE,30,216
2026-05-27T23:33:32.387,705335,0.9,-0.3,-0.29,5.4,-9.5,-7.9,-12.7,56.7,-18.2,101.121,35.8,0,0,0,0,0,NONE,39,230
2026-05-27T23:33:32.440,705387,0.87,-0.27,-0.26,14.2,-7.6,-6.3,-13.0,56.5,-18.0,101.124,35.8,0,0,0,0,0,NONE,73,466
2026-05-27T23:33:32.490,705435,0.89,-0.28,-0.25,8.2,-3.8,-4.2,-13.8,56.4,-17.9,101.121,35.8,0,0,0,0,0,NONE,56,295
2026-05-27T23:33:32.531,705487,0.9,-0.3,-0.23,7.8,0.1,-1.4,-13.7,56.9,-17.1,101.123,35.8,0,0,0,0,0,NONE,45,228
2026-05-27T23:33:32.582,705537,0.91,-0.27,-0.24,13.2,0.8,1.6,-14.4,57.0,-17.2,101.121,35.8,0,0,0,0,0,NONE,20,131
2026-05-27T23:33:32.626,705585,0.9,-0.32,-0.24,14.3,3.1,1.6,-13.8,57.2,-17.8,101.124,35.8,0,0,0,0,0,NONE,34,144
2026-05-27T23:33:32.693,705637,0.91,-0.27,-0.19,16.8,2.6,3.4,-14.2,57.6,-16.4,101.122,35.8,0,0,0,0,0,NONE,30,203
2026-05-27T23:33:32.744,705688,0.88,-0.31,-0.18,8.9,-1.9,2.0,-14.6,57.3,-16.3,101.121,35.8,0,0,0,0,0,NONE,33,177
2026-05-27T23:33:32.791,705735,0.91,-0.29,-0.16,18.9,1.6,5.2,-14.3,57.9,-16.9,101.119,35.79,0,0,0,0,0,NONE,35,203
2026-05-27T23:33:32.834,705789,0.92,-0.25,-0.16,24.6,-3.1,8.9,-14.5,58.2,-15.2,101.123,35.8,0,0,0,0,0,NONE,62,373
2026-05-27T23:33:32.888,705835,0.9,-0.25,-0.19,34.4,-2.9,7.9,-14.4,58.9,-15.6,101.12,35.8,0,0,0,0,0,NONE,52,317
2026-05-27T23:33:32.926,705885,0.89,-0.25,-0.17,34.3,-5.7,10.5,-14.5,59.6,-13.3,101.125,35.8,0,0,0,0,0,NONE,77,393
2026-05-27T23:33:32.992,705938,1.04,-0.26,-0.37,46.7,7.6,1.9,-14.5,59.6,-13.3,101.123,35.8,0,0,0,0,0,NONE,68,390
2026-05-27T23:33:33.042,705987,0.94,-0.08,-0.27,17.2,0.4,9.0,-14.9,60.3,-11.4,101.122,35.8,0,0,0,0,0,NONE,47,250
2026-05-27T23:33:33.091,706035,0.96,-0.14,-0.32,64.0,-1.9,9.0,-14.6,61.0,-9.5,101.122,35.8,0,0,0,0,0,NONE,41,270
2026-05-27T23:33:33.138,706087,0.89,-0.16,-0.06,52.2,-5.3,5.4,-14.1,62.2,-7.1,101.124,35.81,0,0,0,0,0,NONE,59,382
2026-05-27T23:33:33.191,706137,1.01,-0.16,-0.26,1.1,24.8,3.5,-15.1,61.9,-7.8,101.119,35.81,0,0,0,0,0,NONE,82,354
2026-05-27T23:33:33.240,706185,0.96,-0.03,-0.26,24.4,-4.3,4.6,-13.8,62.1,-7.2,101.121,35.8,0,0,0,0,0,NONE,30,199
2026-05-27T23:33:33.293,706237,0.85,-0.04,-0.1,32.7,-0.1,-1.5,-14.6,62.2,-6.0,101.121,35.8,0,0,0,0,0,NONE,43,257
2026-05-27T23:33:33.344,706288,0.95,-0.14,-0.2,13.2,15.0,-10.4,-15.0,62.7,-6.2,101.126,35.81,0,0,0,0,0,NONE,37,221
2026-05-27T23:33:33.391,706337,0.96,-0.15,-0.17,2.9,2.2,-17.3,-15.8,62.5,-6.0,101.121,35.8,0,0,0,0,0,NONE,61,430
2026-05-27T23:33:33.434,706385,0.9,-0.26,-0.13,-20.1,0.7,-25.8,-17.0,62.5,-5.5,101.121,35.8,0,0,0,0,0,NONE,72,225
2026-05-27T23:33:33.482,706437,1.14,-0.08,-0.62,9.6,34.5,-19.8,-16.8,62.8,-6.7,101.123,35.8,0,0,0,0,0,NONE,42,223
2026-05-27T23:33:33.529,706487,0.88,-0.29,-0.28,16.8,-13.5,-14.2,-17.9,62.8,-5.7,101.121,35.8,0,0,0,0,0,NONE,77,495
2026-05-27T23:33:33.577,706535,0.95,-0.16,-0.36,29.2,1.1,-4.3,-18.5,62.5,-4.8,101.123,35.8,0,0,0,0,0,NONE,104,504
2026-05-27T23:33:33.641,706587,0.87,-0.33,-0.3,4.9,-4.8,-8.7,-18.3,62.7,-4.1,101.121,35.8,0,0,0,0,0,NONE,59,412
2026-05-27T23:33:33.693,706639,0.9,-0.26,-0.32,21.1,-5.5,-8.9,-18.9,62.3,-4.7,101.124,35.8,0,0,0,0,0,NONE,103,842
2026-05-27T23:33:33.741,706685,0.91,-0.29,-0.28,17.5,-9.6,-9.2,-19.0,62.0,-2.6,101.121,35.8,0,0,0,0,0,NONE,60,378
2026-05-27T23:33:33.787,706739,0.87,-0.34,-0.27,20.4,-9.0,-7.8,-19.8,62.2,-3.2,101.122,35.8,0,0,0,0,0,NONE,29,160
2026-05-27T23:33:33.833,706785,0.9,-0.28,-0.23,21.0,-11.1,-2.1,-19.7,62.0,-2.1,101.12,35.8,0,0,0,0,0,NONE,36,127
2026-05-27T23:33:33.883,706837,0.89,-0.34,-0.25,10.9,-6.0,0.5,-19.8,62.6,-1.0,101.125,35.8,0,0,0,0,0,NONE,20,79
2026-05-27T23:33:33.944,706888,0.9,-0.28,-0.25,16.9,-5.4,1.7,-19.5,61.9,-2.3,101.124,35.8,0,0,0,0,0,NONE,30,137
2026-05-27T23:33:33.991,706936,0.88,-0.33,-0.22,15.4,-5.6,0.6,-19.6,61.8,-0.3,101.123,35.8,0,0,0,0,0,NONE,14,69
2026-05-27T23:33:34.039,706985,0.9,-0.31,-0.19,19.5,-2.1,1.9,-19.9,62.3,0.3,101.121,35.8,0,0,0,0,0,NONE,44,349
2026-05-27T23:33:34.094,707037,0.9,-0.31,-0.18,18.4,-0.4,4.1,-20.1,61.9,1.9,101.122,35.8,0,0,0,0,0,NONE,73,387
2026-05-27T23:33:34.141,707087,0.94,-0.29,-0.19,21.0,-1.6,2.9,-19.5,62.4,0.4,101.121,35.8,0,0,0,0,0,NONE,40,243
2026-05-27T23:33:34.180,707135,0.89,-0.29,-0.15,30.0,-3.1,3.7,-19.1,62.0,2.7,101.124,35.8,0,0,0,0,0,NONE,56,312
2026-05-27T23:33:34.232,707187,0.89,-0.31,-0.15,32.2,-3.4,7.1,-18.5,61.9,4.2,101.118,35.8,0,0,0,0,0,NONE,47,258
2026-05-27T23:33:34.294,707239,0.89,-0.29,-0.18,40.0,-1.0,11.6,-19.0,61.7,3.5,101.12,35.8,0,0,0,0,0,NONE,36,169
2026-05-27T23:33:34.339,707285,0.91,-0.28,-0.22,45.7,-1.4,13.1,-18.4,61.6,5.7,101.122,35.8,0,0,0,0,0,NONE,45,165
2026-05-27T23:33:34.386,707337,1.08,-0.33,-0.37,50.0,4.7,4.0,-18.1,60.8,7.5,101.122,35.8,0,0,0,0,0,NONE,76,446
2026-05-27T23:33:34.433,707385,0.91,0.05,-0.29,39.1,-7.0,3.8,-18.9,60.2,8.8,101.119,35.79,0,0,0,0,0,NONE,78,460
2026-05-27T23:33:34.485,707437,0.92,-0.2,-0.25,50.4,8.5,-6.3,-18.3,59.8,9.1,101.122,35.79,0,0,0,0,0,NONE,54,357
2026-05-27T23:33:34.544,707488,0.99,-0.16,-0.23,34.7,4.8,-1.8,-18.4,59.6,11.0,101.125,35.81,0,0,0,0,0,NONE,69,397
2026-05-27T23:33:34.591,707537,0.98,-0.16,-0.22,7.3,14.9,2.5,-18.3,59.5,11.8,101.129,35.81,0,0,0,0,0,NONE,57,388
2026-05-27T23:33:34.639,707585,0.96,-0.02,-0.24,21.9,6.3,4.0,-18.7,59.8,12.1,101.123,35.8,0,0,0,0,0,NONE,49,241
2026-05-27T23:33:34.690,707637,0.9,-0.06,-0.19,22.8,8.1,0.3,-18.7,58.6,12.0,101.125,35.81,0,0,0,0,0,NONE,53,318
2026-05-27T23:33:34.736,707687,0.92,-0.15,-0.25,5.2,12.5,-3.4,-19.4,58.5,12.5,101.124,35.8,0,0,0,0,0,NONE,55,309
2026-05-27T23:33:34.787,707735,0.96,-0.13,-0.22,7.2,8.8,-8.7,-19.3,58.8,12.6,101.121,35.8,0,0,0,0,0,NONE,44,204
2026-05-27T23:33:34.842,707787,0.96,-0.16,-0.21,0.9,2.1,-9.9,-19.2,58.9,14.6,101.126,35.8,0,0,0,0,0,NONE,31,190
2026-05-27T23:33:34.893,707839,0.95,-0.2,-0.14,-10.5,-6.2,-18.1,-19.3,59.0,13.1,101.122,35.8,0,0,0,0,0,NONE,53,205
2026-05-27T23:33:34.934,707885,1.1,-0.1,-0.62,9.8,12.2,-6.1,-20.0,58.9,13.0,101.125,35.8,0,0,0,0,0,NONE,39,244
2026-05-27T23:33:34.992,707937,0.91,-0.28,-0.25,24.4,-17.7,-1.2,-19.4,58.6,13.3,101.121,35.8,0,0,0,0,0,NONE,34,204
2026-05-27T23:33:35.037,707985,0.93,-0.16,-0.35,-2.6,-4.6,-3.2,-18.5,58.2,13.4,101.123,35.8,0,0,0,0,0,NONE,31,208
2026-05-27T23:33:35.089,708037,0.91,-0.31,-0.34,1.6,-12.0,-4.4,-18.6,57.9,13.6,101.122,35.81,0,0,0,0,0,NONE,51,296
2026-05-27T23:33:35.140,708088,0.9,-0.21,-0.31,17.0,-10.7,-7.2,-18.5,57.4,13.0,101.125,35.8,0,0,0,0,0,NONE,57,375
2026-05-27T23:33:35.192,708137,0.9,-0.31,-0.25,6.5,-10.0,-7.6,-18.6,57.4,12.2,101.125,35.8,0,0,0,0,0,NONE,55,334
2026-05-27T23:33:35.229,708185,0.89,-0.24,-0.28,14.2,-4.9,-5.5,-18.2,57.1,13.0,101.121,35.8,0,0,0,0,0,NONE,59,358
2026-05-27T23:33:35.293,708237,0.91,-0.27,-0.24,14.7,-5.1,-4.2,-18.3,56.9,13.8,101.123,35.8,0,1,0,0,1,NONE,42,249
2026-05-27T23:33:35.340,708287,0.9,-0.26,-0.26,11.4,-3.1,-4.4,-18.3,56.6,13.4,101.12,35.8,0,1,0,0,1,NONE,44,252
2026-05-27T23:33:35.388,708335,0.93,-0.28,-0.2,19.3,-4.0,-3.2,-18.1,57.2,14.0,101.12,35.8,0,1,0,0,1,NONE,30,139
2026-05-27T23:33:35.435,708387,0.91,-0.27,-0.17,14.2,-4.1,-2.0,-17.9,56.4,15.0,101.12,35.8,0,1,0,0,1,NONE,36,173
2026-05-27T23:33:35.482,708439,0.93,-0.3,-0.17,20.8,-2.9,0.0,-18.1,56.2,13.8,101.122,35.8,0,0,0,0,0,NONE,34,143
2026-05-27T23:33:35.529,708485,0.94,-0.28,-0.18,22.2,-2.3,0.4,-18.1,55.9,16.0,101.119,35.81,0,0,0,0,0,NONE,26,146
2026-05-27T23:33:35.593,708537,0.91,-0.32,-0.16,22.1,-4.3,1.6,-17.5,55.6,15.3,101.122,35.8,0,1,0,0,1,NONE,38,188
2026-05-27T23:33:35.641,708585,0.88,-0.27,-0.14,25.0,-4.8,5.1,-17.7,55.8,15.6,101.122,35.8,0,1,0,0,1,NONE,41,199
2026-05-27T23:33:35.693,708637,0.93,-0.32,-0.15,30.3,0.2,5.9,-16.7,54.6,16.6,101.121,35.8,0,0,0,0,0,NONE,48,209
2026-05-27T23:33:35.739,708688,0.9,-0.32,-0.21,24.4,-3.8,7.4,-16.1,54.9,17.0,101.122,35.8,0,0,0,0,0,NONE,25,177
2026-05-27T23:33:35.788,708737,0.93,-0.29,-0.21,27.8,-1.0,9.8,-16.2,54.5,17.2,101.121,35.8,0,1,0,0,1,NONE,40,152
2026-05-27T23:33:35.835,708785,0.88,-0.18,-0.2,43.9,-6.0,14.3,-15.7,53.7,18.2,101.119,35.81,0,1,0,0,1,NONE,27,161
2026-05-27T23:33:35.881,708837,1.17,-0.35,-0.37,68.3,8.2,3.4,-15.5,53.2,20.0,101.12,35.8,0,0,0,0,0,NONE,23,117
2026-05-27T23:33:35.933,708887,0.97,-0.13,-0.28,24.9,0.2,11.8,-14.7,52.1,20.2,101.119,35.81,0,0,0,0,0,NONE,45,175
2026-05-27T23:33:35.977,708935,0.86,-0.12,-0.25,74.8,-6.7,16.2,-14.7,51.2,21.4,101.119,35.8,0,0,0,0,0,NONE,48,267
2026-05-27T23:33:36.041,708987,0.94,-0.06,-0.08,53.3,5.9,14.2,-13.9,49.4,22.9,101.118,35.8,0,0,0,0,0,NONE,43,258
2026-05-27T23:33:36.090,709039,1.0,-0.03,-0.33,11.4,19.0,10.0,-13.4,48.4,22.4,101.12,35.8,0,1,0,0,1,NONE,48,310
2026-05-27T23:33:36.142,709085,0.96,0.02,-0.2,40.8,-3.6,7.8,-13.1,47.9,22.8,101.122,35.81,0,1,0,0,1,NONE,47,323
2026-05-27T23:33:36.191,709137,0.94,-0.07,-0.19,29.8,1.5,6.1,-13.3,47.5,24.2,101.121,35.8,0,1,0,0,1,NONE,30,196
2026-05-27T23:33:36.233,709185,1.0,-0.03,-0.24,28.4,4.8,5.6,-13.1,46.6,24.1,101.119,35.8,0,1,0,0,1,NONE,33,196
2026-05-27T23:33:36.293,709237,0.89,-0.05,-0.25,26.6,-5.6,4.1,-12.2,45.9,24.6,101.121,35.8,0,1,0,0,1,NONE,46,135
2026-05-27T23:33:36.343,709289,0.95,-0.02,-0.18,25.5,3.8,8.4,-12.7,45.1,24.7,101.122,35.8,0,1,0,0,1,NONE,134,853
2026-05-27T23:33:36.391,709337,0.93,-0.01,-0.16,21.7,1.2,4.2,-12.0,44.4,25.0,101.123,35.8,0,1,0,0,1,NONE,174,937
2026-05-27T23:33:36.440,709385,0.99,-0.07,-0.2,13.1,11.0,4.6,-11.7,43.8,24.8,101.123,35.8,0,1,0,0,1,NONE,88,560
2026-05-27T23:33:36.489,709434,1.08,0.06,-0.19,31.1,4.3,0.4,-11.7,43.8,24.8,101.119,35.8,0,1,0,0,1,NONE,135,611
2026-05-27T23:33:36.539,709489,0.8,-0.11,-0.21,24.0,11.4,4.9,-11.4,42.9,26.0,101.123,35.8,0,1,0,0,1,NONE,142,785
2026-05-27T23:33:36.583,709535,0.96,-0.04,-0.12,26.7,32.7,6.4,-12.2,42.3,26.2,101.123,35.8,0,1,0,0,1,NONE,174,1033
2026-05-27T23:33:36.631,709585,0.82,-0.08,-0.18,3.4,33.7,-0.7,-12.6,41.9,27.3,101.121,35.8,0,1,0,0,1,NONE,130,826
2026-05-27T23:33:36.681,709635,0.91,-0.12,-0.3,-17.6,47.4,-7.9,-14.3,42.1,26.1,101.122,35.8,0,1,0,0,1,NONE,198,994
2026-05-27T23:33:36.743,709687,0.89,0.01,-0.39,-30.2,43.9,-11.7,-15.1,43.6,25.6,101.122,35.8,0,1,0,0,1,NONE,154,945
2026-05-27T23:33:36.791,709735,1.22,0.1,-0.44,3.1,40.0,-2.6,-16.0,43.6,26.6,101.125,35.8,0,1,0,0,1,NONE,93,587
2026-05-27T23:33:36.838,709787,1.06,-0.13,-0.41,7.8,40.0,2.7,-16.6,43.5,25.6,101.12,35.8,0,1,0,0,1,NONE,95,472
2026-05-27T23:33:36.890,709837,1.45,-0.18,-0.87,23.9,38.3,3.0,-18.0,42.7,25.2,101.124,35.8,0,0,0,0,0,NONE,124,826
2026-05-27T23:33:36.940,709885,0.75,-0.04,-0.57,-28.9,6.7,-1.0,-17.9,43.3,25.2,101.121,35.8,0,0,0,0,0,NONE,148,984
2026-05-27T23:33:36.983,709937,0.88,-0.16,-0.66,-31.9,36.4,-1.8,-19.0,44.9,25.1,101.123,35.8,0,0,0,0,0,NONE,94,535
2026-05-27T23:33:37.036,709985,0.87,-0.11,-0.63,-27.2,11.5,-4.6,-20.2,45.7,24.9,101.12,35.8,0,0,0,0,0,NONE,84,541
2026-05-27T23:33:37.090,710037,0.85,-0.16,-0.6,-20.0,3.7,-5.4,-19.9,46.8,23.4,101.128,35.8,0,0,0,0,0,NONE,89,514
2026-05-27T23:33:37.127,710087,0.87,-0.23,-0.59,-13.7,-4.0,-2.0,-20.5,47.4,23.9,101.122,35.8,0,0,0,0,0,NONE,68,452
2026-05-27T23:33:37.190,710135,0.89,-0.24,-0.61,-19.7,-4.8,-2.0,-20.1,47.3,22.3,101.12,35.8,0,0,0,0,0,NONE,60,300
2026-05-27T23:33:37.238,710187,0.91,-0.22,-0.62,-26.4,-13.5,-4.9,-20.0,48.2,20.6,101.12,35.81,0,0,0,0,0,NONE,90,495
2026-05-27T23:33:37.290,710239,0.84,-0.21,-0.47,-19.8,-15.6,-3.5,-20.2,48.5,20.8,101.122,35.8,0,0,0,0,0,NONE,74,442
2026-05-27T23:33:37.336,710285,0.6,-0.17,-0.4,-15.9,-20.5,-0.3,-19.8,49.6,21.1,101.12,35.8,0,0,0,0,0,NONE,78,468
2026-05-27T23:33:37.389,710337,0.64,-0.19,-0.38,-9.2,-11.4,2.3,-19.0,49.9,20.0,101.118,35.8,0,0,0,0,0,NONE,63,377
2026-05-27T23:33:37.432,710385,0.63,-0.17,-0.29,-5.9,-13.7,1.6,-18.8,50.3,19.1,101.118,35.8,0,0,0,0,0,NONE,72,300
2026-05-27T23:33:37.479,710437,0.77,-0.27,-0.32,-19.2,4.6,2.2,-18.8,50.6,18.7,101.116,35.8,0,0,0,0,0,NONE,23,139
2026-05-27T23:33:37.542,710489,0.81,-0.23,-0.41,-33.3,-5.3,1.8,-19.7,51.0,17.9,101.121,35.8,0,0,0,0,0,NONE,56,175
2026-05-27T23:33:37.590,710537,0.84,-0.27,-0.29,-23.1,-3.0,5.9,-18.3,52.0,17.3,101.119,35.8,0,1,0,0,1,NONE,27,136
2026-05-27T23:33:37.640,710585,0.84,-0.22,-0.31,-10.7,-8.1,12.5,-18.1,52.7,17.1,101.115,35.8,0,1,0,0,1,NONE,19,88
2026-05-27T23:33:37.688,710637,0.84,-0.22,-0.31,0.0,-3.3,15.6,-17.8,52.6,16.6,101.118,35.8,0,1,0,0,1,NONE,23,130
2026-05-27T23:33:37.735,710687,0.87,-0.24,-0.25,6.5,-13.2,20.3,-17.1,52.6,17.6,101.121,35.8,0,1,0,0,1,NONE,32,193
2026-05-27T23:33:37.787,710735,0.9,-0.18,-0.33,27.2,-11.7,22.8,-16.2,52.5,17.7,101.117,35.8,0,1,0,0,1,NONE,30,152
2026-05-27T23:33:37.836,710787,0.89,-0.18,-0.3,25.3,1.6,18.9,-15.2,51.5,17.5,101.119,35.8,0,1,0,0,1,NONE,47,295
2026-05-27T23:33:37.881,710839,0.81,-0.17,-0.36,19.9,11.7,20.3,-15.3,51.3,18.3,101.115,35.8,0,1,0,0,1,NONE,55,295
2026-05-27T23:33:37.931,710885,0.73,-0.06,-0.4,17.9,20.0,16.5,-14.6,51.0,17.9,101.115,35.8,0,1,0,0,1,NONE,47,279
2026-05-27T23:33:37.991,710937,0.79,-0.1,-0.43,35.5,19.7,11.2,-14.8,50.7,18.1,101.121,35.8,0,1,0,0,1,NONE,46,243
2026-05-27T23:33:38.039,710985,0.97,-0.06,-0.54,15.5,46.7,6.8,-15.3,50.7,19.8,101.118,35.8,0,1,0,0,1,NONE,60,258
2026-05-27T23:33:38.087,711037,0.96,-0.03,-0.38,42.8,3.1,10.4,-15.8,49.7,19.8,101.119,35.8,0,0,0,0,0,NONE,56,261
2026-05-27T23:33:38.138,711089,1.03,-0.27,-0.23,6.3,20.5,7.1,-15.3,48.9,19.1,101.119,35.8,0,0,0,0,0,NONE,62,266
2026-05-27T23:33:38.187,711137,1.0,0.08,-0.38,1.5,18.4,4.2,-15.3,49.2,20.3,101.118,35.8,0,0,0,0,0,NONE,62,348
2026-05-27T23:33:38.235,711185,0.83,0.03,-0.34,12.0,12.8,2.4,-16.4,49.1,21.0,101.12,35.8,0,0,0,0,0,NONE,47,281
2026-05-27T23:33:38.284,711237,0.99,-0.1,-0.37,1.0,16.8,-6.2,-16.8,48.9,20.9,101.117,35.8,0,0,0,0,0,NONE,47,282
2026-05-27T23:33:38.342,711285,0.96,-0.09,-0.36,-26.9,19.8,-13.4,-17.4,49.1,19.9,101.116,35.8,0,0,0,0,0,NONE,61,362
2026-05-27T23:33:38.392,711337,0.95,-0.18,-0.32,-30.7,1.4,-15.7,-18.0,50.1,18.9,101.117,35.8,0,0,0,0,0,NONE,83,500
2026-05-27T23:33:38.441,711387,0.93,0.11,-0.5,-31.7,0.4,-16.8,-18.2,51.4,18.5,101.12,35.8,0,0,0,0,0,NONE,130,662
2026-05-27T23:33:38.491,711435,1.31,-0.0,-0.77,28.3,-21.7,-21.2,-18.4,51.4,18.6,101.121,35.8,0,0,0,0,0,NONE,73,402
2026-05-27T23:33:38.538,711487,0.85,-0.51,-0.43,-23.9,-23.2,-18.9,-18.7,51.3,18.1,101.118,35.8,0,0,0,0,0,NONE,135,723
2026-05-27T23:33:38.594,711539,0.91,-0.07,-0.51,10.1,-23.5,-10.6,-18.2,51.6,18.7,101.121,35.8,0,1,0,0,1,NONE,61,380
2026-05-27T23:33:38.636,711585,0.81,-0.34,-0.43,-7.6,-19.8,-8.9,-18.3,51.2,17.9,101.119,35.8,0,1,0,0,1,NONE,56,294
2026-05-27T23:33:38.680,711637,0.84,-0.26,-0.4,-4.4,-16.9,-8.1,-18.2,52.1,18.1,101.117,35.8,0,1,0,0,1,NONE,82,485
2026-05-27T23:33:38.737,711685,0.84,-0.26,-0.4,-1.2,-17.9,-6.3,-18.3,52.0,16.9,101.118,35.8,0,1,0,0,1,NONE,89,562
2026-05-27T23:33:38.791,711737,0.84,-0.27,-0.37,-0.5,-12.5,-4.5,-17.1,52.2,18.5,101.121,35.8,0,1,0,0,1,NONE,53,361
2026-05-27T23:33:38.843,711789,0.82,-0.3,-0.36,5.8,-15.6,-4.9,-17.9,52.7,16.4,101.118,35.8,0,1,0,0,1,NONE,54,306
2026-05-27T23:33:38.892,711837,0.81,-0.32,-0.29,2.0,-2.7,-1.0,-17.3,52.9,17.0,101.115,35.8,0,1,0,0,1,NONE,113,608
2026-05-27T23:33:38.938,711885,0.84,-0.27,-0.32,4.4,-2.3,1.5,-17.7,52.5,16.5,101.118,35.8,0,1,0,0,1,NONE,138,729
2026-05-27T23:33:38.988,711937,0.93,-0.34,-0.31,0.5,-3.4,4.3,-17.7,52.2,17.0,101.118,35.8,0,1,0,0,1,NONE,482,2101
2026-05-27T23:33:39.038,711987,0.88,-0.32,-0.26,0.7,0.9,6.8,-17.2,52.3,15.5,101.122,35.8,0,1,0,0,1,NONE,114,563
2026-05-27T23:33:39.085,712035,0.84,-0.28,-0.28,4.9,5.7,8.5,-17.2,52.0,16.2,101.12,35.8,0,1,0,0,1,NONE,93,561
2026-05-27T23:33:39.139,712087,0.9,-0.34,-0.16,-0.6,-1.9,12.4,-16.3,52.5,16.1,101.117,35.8,0,1,0,0,1,NONE,55,287
2026-05-27T23:33:39.193,712139,0.94,-0.31,-0.27,-5.3,-0.9,15.5,-17.2,52.8,15.2,101.115,35.8,0,1,0,0,1,NONE,50,327
2026-05-27T23:33:39.239,712185,0.96,-0.25,-0.18,15.9,-18.2,23.4,-15.8,52.8,16.2,101.119,35.8,0,1,0,0,1,NONE,162,1003
2026-05-27T23:33:39.290,712237,0.93,-0.27,-0.2,20.6,-5.4,20.8,-14.7,52.5,16.1,101.118,35.8,0,1,0,0,1,NONE,139,940
2026-05-27T23:33:39.340,712285,0.91,-0.31,-0.35,11.8,0.8,13.8,-14.2,52.1,17.2,101.119,35.8,0,1,0,0,1,NONE,128,805
2026-05-27T23:33:39.390,712337,0.96,-0.05,-0.24,6.2,-13.2,6.3,-13.5,52.1,16.9,101.122,35.8,0,1,0,0,1,NONE,132,827
2026-05-27T23:33:39.440,712389,0.98,-0.24,-0.37,-4.2,6.0,2.5,-13.6,52.3,16.9,101.115,35.8,0,1,0,0,1,NONE,225,1334
2026-05-27T23:33:39.487,712437,0.94,0.04,-0.26,30.8,-3.2,14.3,-13.3,52.6,16.9,101.122,35.8,0,1,0,0,1,NONE,305,1766
2026-05-27T23:33:39.540,712485,0.92,-0.16,-0.04,12.9,4.8,5.7,-13.4,52.4,17.0,101.121,35.8,0,1,0,0,1,NONE,97,751
2026-05-27T23:33:39.583,712538,0.96,-0.12,-0.27,-17.5,32.5,6.8,-13.2,51.9,16.2,101.118,35.8,0,1,0,0,1,NONE,73,439
2026-05-27T23:33:39.642,712587,0.98,-0.0,-0.24,13.3,16.8,5.7,-13.7,53.3,15.7,101.12,35.8,0,1,0,0,1,NONE,64,355
2026-05-27T23:33:39.693,712636,0.87,-0.06,-0.18,9.9,20.0,2.1,-14.0,52.7,17.0,101.119,35.8,0,1,0,0,1,NONE,67,400
2026-05-27T23:33:39.742,712687,0.93,-0.17,-0.17,0.9,22.5,-4.1,-14.7,53.2,16.6,101.12,35.8,0,1,0,0,1,NONE,53,290
2026-05-27T23:33:39.794,712739,0.91,-0.22,-0.23,-21.6,18.2,-15.3,-15.1,53.3,15.4,101.115,35.79,0,1,0,0,1,NONE,51,315
2026-05-27T23:33:39.842,712785,0.76,-0.29,-0.25,-34.7,5.8,-22.0,-15.3,53.3,16.7,101.121,35.8,0,1,0,0,1,NONE,96,369
2026-05-27T23:33:39.887,712838,1.2,0.33,-1.0,57.7,14.4,-3.7,-16.0,53.8,14.5,101.119,35.8,0,1,0,0,1,NONE,84,409
2026-05-27T23:33:39.936,712885,0.72,-0.61,-0.18,12.0,8.5,-8.5,-16.9,53.8,18.6,101.118,35.8,0,1,0,0,1,NONE,150,516
2026-05-27T23:33:39.980,712934,1.08,0.09,-0.57,30.1,30.2,4.2,-16.9,53.8,18.6,101.118,35.8,0,1,0,0,1,NONE,60,301
2026-05-27T23:33:40.034,712986,0.99,-0.31,-0.49,30.0,6.9,-5.7,-17.4,53.6,15.6,101.122,35.8,0,1,0,0,1,NONE,68,393
2026-05-27T23:33:40.080,713035,0.91,-0.29,-0.41,12.9,12.3,-13.2,-18.4,53.7,16.7,101.12,35.8,0,1,0,0,1,NONE,66,315
2026-05-27T23:33:40.144,713087,0.89,-0.21,-0.45,24.6,5.1,-9.0,-18.6,52.7,16.6,101.119,35.8,0,1,0,0,1,NONE,63,324
2026-05-27T23:33:40.189,713136,0.83,-0.29,-0.41,18.1,-2.9,-6.8,-19.0,52.7,17.9,101.116,35.8,0,1,0,0,1,NONE,70,362
2026-05-27T23:33:40.239,713187,0.87,-0.24,-0.43,12.0,-7.0,-3.7,-19.3,52.7,18.0,101.118,35.8,0,1,0,0,1,NONE,57,263
2026-05-27T23:33:40.290,713236,0.88,-0.27,-0.39,-1.0,-15.3,-3.5,-18.8,52.8,17.3,101.116,35.8,0,1,0,0,1,NONE,28,165
2026-05-27T23:33:40.339,713287,0.89,-0.21,-0.37,5.2,-21.6,-2.9,-19.4,52.8,17.0,101.118,35.8,0,1,0,0,1,NONE,57,293
2026-05-27T23:33:40.387,713339,0.85,-0.28,-0.3,2.8,-17.4,1.6,-18.7,52.8,17.5,101.117,35.8,0,1,0,0,1,NONE,129,598
2026-05-27T23:33:40.433,713385,0.91,-0.27,-0.36,5.8,-8.4,9.6,-18.4,52.7,17.2,101.118,35.8,0,1,0,0,1,NONE,90,496
2026-05-27T23:33:40.482,713437,0.83,-0.22,-0.25,12.9,-11.5,14.4,-17.7,52.4,17.8,101.119,35.8,0,1,0,0,1,NONE,89,544
2026-05-27T23:33:40.539,713485,0.95,-0.24,-0.25,8.8,-5.7,9.8,-17.2,52.2,18.4,101.117,35.8,0,1,0,0,1,NONE,109,560
2026-05-27T23:33:40.592,713537,0.83,-0.21,-0.22,19.4,-4.5,3.2,-16.4,52.7,18.1,101.121,35.8,0,1,0,0,1,NONE,56,368
2026-05-27T23:33:40.644,713589,0.9,-0.19,-0.2,34.6,-15.5,8.7,-15.9,51.8,19.3,101.119,35.79,0,1,0,0,1,NONE,44,206
2026-05-27T23:33:40.686,713637,0.9,-0.23,-0.25,34.4,-10.4,7.5,-16.0,51.8,18.9,101.119,35.8,0,1,0,0,1,NONE,46,237
2026-05-27T23:33:40.737,713689,0.98,-0.32,-0.39,45.2,0.9,2.4,-15.4,51.1,21.2,101.119,35.8,0,1,0,0,1,NONE,38,159
2026-05-27T23:33:40.781,713737,1.0,-0.12,-0.37,-15.4,3.1,3.7,-15.9,51.6,20.9,101.117,35.8,0,1,0,0,1,NONE,75,248
2026-05-27T23:33:40.829,713785,0.88,0.01,-0.32,47.6,-12.3,10.3,-15.6,51.4,21.2,101.118,35.8,0,1,0,0,1,NONE,46,134
2026-05-27T23:33:40.877,713837,0.85,-0.02,-0.18,49.6,0.1,4.9,-15.2,50.4,23.2,101.118,35.8,0,1,0,0,1,NONE,33,81
2026-05-27T23:33:40.941,713887,0.96,-0.1,-0.22,25.3,7.8,-3.7,-15.2,50.2,22.5,101.121,35.8,0,1,0,0,1,NONE,38,190
2026-05-27T23:33:40.990,713935,0.96,-0.1,-0.18,18.1,6.9,-4.8,-15.3,49.8,23.1,101.12,35.8,0,1,0,0,1,NONE,35,191
2026-05-27T23:33:41.036,713987,0.98,0.01,-0.29,18.1,17.3,-2.9,-15.8,49.7,24.9,101.119,35.8,0,1,0,0,1,NONE,45,250
2026-05-27T23:33:41.088,714039,0.94,-0.08,-0.22,31.6,2.1,-4.6,-16.5,49.0,23.6,101.118,35.8,0,1,0,0,1,NONE,34,131
2026-05-27T23:33:41.132,714085,0.89,-0.08,-0.22,30.2,13.0,-6.7,-17.2,48.6,24.9,101.115,35.8,0,1,0,0,1,NONE,34,165
2026-05-27T23:33:41.184,714138,0.88,-0.1,-0.25,18.2,16.5,-12.0,-16.8,47.4,26.6,101.118,35.8,0,1,0,1,2,NONE,39,189
2026-05-27T23:33:41.229,714185,0.94,-0.17,-0.21,15.4,15.2,-16.8,-17.8,46.9,24.9,101.119,35.8,0,1,0,1,2,NONE,14,97
2026-05-27T23:33:41.277,714237,0.91,-0.25,-0.21,1.9,14.1,-22.0,-18.4,46.5,25.8,101.12,35.8,0,1,0,0,1,NONE,34,163
2026-05-27T23:33:41.341,714288,1.01,-0.1,-0.35,-5.6,21.7,-18.7,-19.0,46.6,26.3,101.124,35.8,0,1,0,0,1,NONE,54,98
2026-05-27T23:33:41.392,714337,1.12,-0.12,-0.46,44.9,7.3,-8.4,-19.8,46.6,25.7,101.12,35.8,0,1,0,0,1,NONE,28,123
2026-05-27T23:33:41.437,714385,0.99,-0.29,-0.35,18.2,15.1,-13.7,-19.8,44.4,27.1,101.12,35.8,0,1,0,0,1,NONE,35,181
2026-05-27T23:33:41.485,714437,0.97,-0.22,-0.49,15.9,5.1,-10.7,-20.3,44.1,26.7,101.12,35.8,0,1,0,0,1,NONE,41,249
2026-05-27T23:33:41.536,714487,0.97,-0.22,-0.46,12.0,-2.6,-9.8,-20.5,44.2,26.0,101.12,35.81,0,1,0,0,1,NONE,32,214
2026-05-27T23:33:41.585,714535,0.92,-0.23,-0.41,23.1,-11.4,-10.4,-20.1,43.3,26.8,101.118,35.81,0,1,0,0,1,NONE,28,184
2026-05-27T23:33:41.633,714587,0.85,-0.24,-0.38,22.9,-17.6,-10.5,-21.0,43.0,28.1,101.117,35.8,0,1,0,0,1,NONE,42,195
2026-05-27T23:33:41.683,714639,0.87,-0.27,-0.36,20.9,-19.6,-7.8,-20.3,42.3,27.1,101.119,35.81,0,1,0,0,1,NONE,57,186
2026-05-27T23:33:41.730,714685,0.83,-0.25,-0.36,18.8,-15.4,-6.1,-19.2,41.4,27.8,101.119,35.8,0,1,0,0,1,NONE,21,130
2026-05-27T23:33:41.792,714739,0.84,-0.23,-0.31,13.9,-14.5,-4.1,-18.9,40.9,27.2,101.119,35.8,0,1,0,0,1,NONE,21,120
2026-05-27T23:33:41.840,714785,0.88,-0.29,-0.3,11.3,-10.5,-1.2,-18.0,40.1,27.6,101.123,35.8,0,1,0,0,1,NONE,41,165
2026-05-27T23:33:41.892,714837,0.87,-0.31,-0.28,9.3,-10.5,2.6,-17.4,40.2,27.9,101.12,35.81,0,1,0,0,1,NONE,41,233
2026-05-27T23:33:41.945,714888,0.94,-0.22,-0.19,10.3,-11.2,6.5,-17.7,39.8,28.3,101.121,35.8,0,1,0,0,1,NONE,53,323
2026-05-27T23:33:41.989,714937,0.96,-0.25,-0.16,16.8,-19.6,5.7,-16.6,38.7,27.3,101.118,35.8,0,1,0,0,1,NONE,32,172
2026-05-27T23:33:42.033,714985,0.9,-0.19,-0.18,16.3,-19.1,7.4,-15.8,39.2,28.0,101.117,35.8,0,1,0,0,1,NONE,17,94
2026-05-27T23:33:42.081,715037,0.91,-0.22,-0.18,29.1,-18.6,8.7,-15.5,38.2,28.0,101.117,35.8,0,1,0,1,2,NONE,37,182
2026-05-27T23:33:42.134,715087,0.91,-0.17,-0.34,39.7,-12.4,4.5,-14.9,37.6,28.4,101.12,35.8,0,1,0,1,2,NONE,30,142
2026-05-27T23:33:42.180,715136,0.99,-0.27,-0.32,7.4,-0.9,-0.3,-14.4,35.9,28.6,101.117,35.8,0,1,0,1,2,NONE,21,116
2026-05-27T23:33:42.242,715187,0.91,-0.1,-0.32,25.1,-5.9,8.0,-14.6,37.0,28.7,101.12,35.8,0,1,0,1,2,NONE,36,155
2026-05-27T23:33:42.291,715239,0.83,-0.12,-0.04,47.9,-9.5,7.3,-14.1,36.0,27.8,101.117,35.8,0,1,0,1,2,NONE,33,193
2026-05-27T23:33:42.339,715285,1.05,-0.2,-0.08,5.2,20.4,6.4,-13.7,34.0,27.1,101.117,35.8,0,1,0,1,2,NONE,41,148
2026-05-27T23:33:42.385,715339,0.94,-0.02,-0.28,6.6,17.6,7.8,-14.7,34.3,28.9,101.117,35.8,0,1,0,1,2,NONE,25,110
2026-05-27T23:33:42.437,715385,0.92,-0.14,-0.04,16.2,13.7,1.6,-15.4,34.4,29.4,101.114,35.8,0,1,0,1,2,NONE,40,169
2026-05-27T23:33:42.485,715437,0.91,-0.19,-0.13,-5.7,28.8,-4.0,-15.6,33.6,28.9,101.114,35.8,0,1,0,0,1,NONE,50,177
2026-05-27T23:33:42.540,715489,0.98,-0.08,-0.14,0.2,20.0,-6.5,-16.2,33.9,29.8,101.119,35.8,0,1,0,0,1,NONE,66,163
2026-05-27T23:33:42.579,715537,1.0,-0.17,-0.12,-11.4,15.2,-7.8,-17.0,33.6,28.1,101.119,35.8,0,1,0,0,1,NONE,47,177
2026-05-27T23:33:42.625,715585,1.01,-0.11,-0.19,-4.5,24.9,-7.1,-17.4,34.4,28.1,101.118,35.8,0,1,0,0,1,NONE,38,174
2026-05-27T23:33:42.691,715637,1.01,-0.25,-0.36,3.1,0.2,-4.2,-17.7,33.6,29.3,101.119,35.8,0,1,0,0,1,NONE,52,215
2026-05-27T23:33:42.741,715687,1.09,-0.31,-0.45,-17.0,22.9,1.0,-18.1,33.7,29.0,101.118,35.8,0,1,0,0,1,NONE,56,276
2026-05-27T23:33:42.790,715735,0.91,-0.27,-0.46,-10.4,-2.9,-4.0,-18.5,34.5,28.0,101.119,35.8,0,1,0,1,2,NONE,75,255
2026-05-27T23:33:42.843,715787,0.82,-0.27,-0.35,-16.1,1.2,-3.5,-18.1,34.7,27.7,101.119,35.8,0,1,0,1,2,NONE,57,276
2026-05-27T23:33:42.888,715839,0.87,-0.31,-0.39,-5.2,1.2,-4.0,-19.0,35.3,28.5,101.116,35.8,0,1,0,1,2,NONE,42,151
2026-05-27T23:33:42.933,715885,0.8,-0.29,-0.3,-8.1,-0.5,-1.7,-19.0,35.8,28.1,101.116,35.8,0,1,0,1,2,NONE,28,176
2026-05-27T23:33:42.992,715937,0.84,-0.25,-0.34,-0.2,22.7,-1.4,-18.3,35.9,28.4,101.119,35.8,0,1,0,0,1,NONE,32,166
2026-05-27T23:33:43.040,715985,0.93,-0.4,-0.38,-18.7,13.1,-1.8,-19.0,35.6,29.1,101.118,35.8,0,1,0,0,1,NONE,68,290
2026-05-27T23:33:43.088,716037,0.84,-0.36,-0.39,-23.4,-3.2,6.8,-19.6,36.0,27.6,101.117,35.79,0,1,0,0,1,NONE,56,296
2026-05-27T23:33:43.140,716088,0.81,-0.31,-0.3,-33.9,-2.7,20.0,-18.7,36.7,28.8,101.122,35.8,0,1,0,0,1,NONE,51,288
2026-05-27T23:33:43.193,716137,0.91,-0.2,-0.31,-22.2,-2.7,18.9,-18.9,37.9,27.0,101.122,35.8,0,1,0,1,2,NONE,44,264
2026-05-27T23:33:43.237,716185,0.88,-0.24,-0.22,-13.1,-4.5,17.5,-18.7,38.1,28.0,101.117,35.8,0,1,0,1,2,NONE,35,233
2026-05-27T23:33:43.293,716238,0.89,-0.26,-0.25,-5.3,1.9,14.7,-18.3,38.7,27.2,101.116,35.8,0,1,0,1,2,NONE,35,177
2026-05-27T23:33:43.329,716287,0.9,-0.36,-0.19,-18.4,6.4,11.9,-18.7,39.7,26.5,101.113,35.8,0,1,0,1,2,NONE,33,178
2026-05-27T23:33:43.378,716335,0.9,-0.3,-0.22,-19.0,10.4,15.7,-18.0,39.3,25.8,101.116,35.79,0,1,1,1,3,NONE,34,201
2026-05-27T23:33:43.444,716387,0.9,-0.25,-0.21,-16.5,9.8,18.1,-18.4,41.2,26.7,101.115,35.79,0,1,1,1,3,NONE,27,189
2026-05-27T23:33:43.490,716436,0.9,-0.16,-0.2,1.2,7.6,21.4,-18.4,41.2,26.7,101.117,35.8,0,1,0,1,2,NONE,26,117
2026-05-27T23:33:43.538,716487,1.01,-0.27,-0.2,15.7,6.7,18.3,-19.0,40.4,26.6,101.115,35.79,0,1,0,1,2,NONE,23,149
2026-05-27T23:33:43.594,716538,0.92,-0.31,-0.34,-21.6,19.5,11.2,-18.7,41.1,26.9,101.115,35.8,0,1,0,1,2,NONE,37,176
2026-05-27T23:33:43.634,716587,0.99,0.03,-0.34,14.3,0.1,9.7,-18.5,41.1,26.6,101.118,35.8,0,1,0,1,2,NONE,24,168
2026-05-27T23:33:43.681,716635,0.94,-0.18,-0.33,21.9,15.9,2.1,-18.7,41.0,26.7,101.12,35.8,0,1,0,0,1,NONE,32,157
2026-05-27T23:33:43.729,716687,0.98,-0.18,-0.23,-2.2,2.9,5.1,-18.9,41.4,27.2,101.122,35.8,0,1,0,0,1,NONE,39,143
2026-05-27T23:33:43.794,716739,1.06,-0.06,-0.32,-0.5,17.6,8.2,-19.0,41.6,26.6,101.119,35.8,0,1,0,1,2,NONE,18,104
2026-05-27T23:33:43.830,716785,0.94,-0.14,-0.28,6.7,1.6,7.0,-19.6,41.4,26.3,101.118,35.8,0,1,0,1,2,NONE,22,84
2026-05-27T23:33:43.892,716837,0.84,-0.14,-0.22,-6.5,10.3,6.8,-19.5,41.8,26.3,101.12,35.8,0,1,0,1,2,NONE,23,123
2026-05-27T23:33:43.942,716885,0.86,-0.14,-0.25,-12.1,11.7,1.8,-19.8,41.5,27.3,101.116,35.8,0,1,0,1,2,NONE,26,114
2026-05-27T23:33:43.990,716937,0.85,-0.08,-0.24,-17.7,13.8,-5.9,-20.4,42.6,26.0,101.115,35.79,0,1,0,0,1,NONE,36,168
2026-05-27T23:33:44.034,716988,0.94,-0.18,-0.18,-29.6,12.4,-5.7,-20.6,43.4,24.9,101.118,35.8,0,1,0,0,1,NONE,34,129
2026-05-27T23:33:44.091,717037,0.87,-0.15,-0.23,-34.1,4.3,-9.5,-21.2,44.5,24.1,101.12,35.8,0,1,0,0,1,NONE,26,109
2026-05-27T23:33:44.131,717085,0.98,-0.1,-0.24,-25.7,13.9,-11.5,-21.7,44.8,23.6,101.117,35.8,0,1,0,0,1,NONE,123,213
2026-05-27T23:33:44.181,717137,0.99,-0.18,-0.66,3.3,9.5,-2.8,-22.0,44.8,23.8,101.122,35.8,0,1,0,1,2,NONE,75,275
2026-05-27T23:33:44.236,717187,1.04,-0.52,-0.42,-32.7,12.2,-3.5,-22.0,45.3,23.5,101.115,35.8,0,1,0,1,2,NONE,28,164
2026-05-27T23:33:44.291,717235,0.95,-0.23,-0.46,-24.8,1.5,2.3,-22.2,46.1,23.1,101.114,35.79,0,1,0,1,2,NONE,47,191
2026-05-27T23:33:44.342,717287,0.99,-0.31,-0.4,-15.9,-5.4,2.7,-22.5,47.3,22.7,101.116,35.79,0,1,0,1,2,NONE,46,180
2026-05-27T23:33:44.387,717339,0.84,-0.33,-0.29,-20.1,-15.0,-2.1,-22.2,47.3,21.8,101.117,35.79,0,1,0,0,1,NONE,21,139
2026-05-27T23:33:44.437,717385,0.87,-0.28,-0.36,-16.8,-12.8,0.2,-21.6,47.4,22.2,101.117,35.79,0,1,0,0,1,NONE,31,181
2026-05-27T23:33:44.488,717437,0.78,-0.28,-0.26,-7.7,-13.4,1.8,-20.9,47.9,21.9,101.115,35.79,0,1,0,0,1,NONE,50,111
2026-05-27T23:33:44.540,717485,0.83,-0.35,-0.25,-14.8,-8.1,4.8,-21.0,49.0,22.1,101.119,35.79,0,1,0,0,1,NONE,31,104
2026-05-27T23:33:44.580,717537,0.82,-0.31,-0.27,-13.2,3.4,5.4,-20.5,49.6,20.3,101.115,35.79,0,1,0,1,2,NONE,22,133
2026-05-27T23:33:44.634,717589,0.87,-0.29,-0.18,-5.5,12.4,6.4,-21.1,49.8,20.5,101.12,35.79,0,1,0,1,2,NONE,28,129
2026-05-27T23:33:44.692,717637,0.93,-0.3,-0.21,-8.5,6.5,8.8,-21.4,50.3,20.9,101.119,35.79,0,1,0,0,1,NONE,31,126
2026-05-27T23:33:44.740,717685,0.88,-0.33,-0.13,-9.5,-5.3,13.4,-20.8,50.0,21.3,101.119,35.79,0,1,0,0,1,NONE,34,166
2026-05-27T23:33:44.791,717737,0.92,-0.27,-0.07,13.0,-9.9,16.2,-20.2,50.3,20.2,101.117,35.79,0,1,0,0,1,NONE,27,138
2026-05-27T23:33:44.835,717787,0.95,-0.28,-0.07,13.5,-3.8,22.6,-19.4,49.7,21.6,101.119,35.8,0,1,0,0,1,NONE,32,137
2026-05-27T23:33:44.888,717835,0.94,-0.26,-0.22,13.2,-2.9,16.4,-18.9,49.6,20.9,101.118,35.79,0,1,0,0,1,NONE,24,125
2026-05-27T23:33:44.936,717887,0.84,-0.23,-0.27,29.1,1.5,10.7,-18.6,49.0,21.0,101.115,35.79,0,1,0,0,1,NONE,27,176
2026-05-27T23:33:44.994,717939,0.99,-0.29,-0.26,-1.8,18.5,8.4,-18.3,48.9,23.3,101.116,35.79,0,1,0,0,1,NONE,36,142
2026-05-27T23:33:45.032,717985,0.95,-0.1,-0.37,6.8,21.8,10.3,-19.1,48.7,21.6,101.117,35.8,0,1,0,0,1,NONE,17,122
2026-05-27T23:33:45.089,718037,0.84,-0.17,-0.14,29.6,15.0,8.7,-18.7,49.0,21.8,101.116,35.79,0,1,0,0,1,NONE,34,101
2026-05-27T23:33:45.140,718085,1.1,-0.08,-0.2,-7.1,32.5,8.6,-19.7,48.3,22.9,101.118,35.79,0,1,0,0,1,NONE,46,158
2026-05-27T23:33:45.188,718137,0.94,-0.11,-0.34,10.6,20.4,7.6,-20.2,48.5,22.6,101.118,35.8,0,1,0,0,1,NONE,50,178
2026-05-27T23:33:45.238,718188,0.89,-0.11,-0.13,12.0,18.6,7.3,-20.2,48.3,23.2,101.115,35.79,0,1,0,0,1,NONE,26,116
2026-05-27T23:33:45.286,718237,0.94,-0.17,-0.24,-17.3,23.3,-2.0,-20.7,48.4,22.2,101.122,35.8,0,1,0,0,1,NONE,22,109
2026-05-27T23:33:45.337,718285,0.91,-0.08,-0.22,-14.1,20.1,-5.9,-21.4,49.1,22.2,101.117,35.79,0,1,0,0,1,NONE,40,144
2026-05-27T23:33:45.391,718337,0.94,-0.22,-0.22,-26.4,5.1,-12.7,-22.3,49.9,21.4,101.12,35.79,0,1,0,0,1,NONE,56,278
2026-05-27T23:33:45.427,718387,0.83,-0.14,-0.24,-13.2,24.7,-16.8,-22.6,49.9,21.8,101.119,35.79,0,1,0,0,1,NONE,151,617
2026-05-27T23:33:45.476,718436,1.11,-0.03,-0.7,31.1,15.0,-1.7,-23.5,50.0,20.6,101.121,35.8,0,1,0,0,1,NONE,91,420
2026-05-27T23:33:45.542,718487,0.95,-0.39,-0.46,-6.3,7.4,-6.7,-23.1,49.6,22.1,101.121,35.8,0,1,0,0,1,NONE,84,423
2026-05-27T23:33:45.588,718539,1.0,-0.29,-0.47,-6.3,-4.0,-11.3,-23.4,49.5,20.8,101.12,35.79,0,1,0,0,1,NONE,53,336
2026-05-27T23:33:45.640,718585,0.92,-0.31,-0.4,-9.1,-11.6,-8.1,-24.0,50.3,19.9,101.118,35.79,0,1,0,0,1,NONE,83,426
2026-05-27T23:33:45.692,718639,0.86,-0.28,-0.35,-0.7,-17.6,-5.7,-23.5,50.1,21.0,101.116,35.79,0,1,0,1,2,NONE,42,231
2026-05-27T23:33:45.732,718685,0.83,-0.36,-0.31,-7.4,-17.1,-2.8,-23.4,50.3,20.7,101.119,35.79,0,1,0,1,2,NONE,48,228
2026-05-27T23:33:45.781,718737,0.85,-0.33,-0.32,-11.6,-12.9,-0.2,-22.6,50.1,20.6,101.119,35.79,0,1,0,1,2,NONE,63,376
2026-05-27T23:33:45.831,718789,0.84,-0.3,-0.28,-7.1,-12.3,1.8,-21.9,51.0,21.3,101.116,35.79,0,1,0,1,2,NONE,72,436
2026-05-27T23:33:45.891,718837,0.81,-0.36,-0.29,-12.7,-5.0,2.5,-22.4,51.1,19.8,101.118,35.79,0,1,0,0,1,NONE,63,357
2026-05-27T23:33:45.938,718885,0.88,-0.3,-0.25,-9.5,-5.7,8.8,-21.9,51.0,20.4,101.117,35.79,0,1,0,0,1,NONE,94,540
2026-05-27T23:33:45.991,718937,0.88,-0.29,-0.21,-1.0,-4.5,7.9,-21.4,51.4,19.7,101.118,35.79,0,1,0,0,1,NONE,81,435
2026-05-27T23:33:46.040,718987,0.88,-0.26,-0.18,2.5,-2.5,13.3,-21.2,51.5,20.7,101.119,35.8,0,1,0,0,1,NONE,47,267
2026-05-27T23:33:46.083,719036,0.94,-0.26,-0.16,16.1,-5.2,14.8,-20.7,51.8,20.2,101.121,35.79,0,1,0,1,2,NONE,62,241
2026-05-27T23:33:46.133,719087,0.91,-0.3,-0.18,11.0,0.2,18.8,-19.8,51.7,20.3,101.121,35.79,0,1,0,1,2,NONE,50,246
2026-05-27T23:33:46.183,719139,0.87,-0.21,-0.28,25.4,0.7,18.6,-19.2,50.8,21.4,101.118,35.79,0,1,0,1,2,NONE,81,440
2026-05-27T23:33:46.228,719185,0.93,-0.19,-0.23,45.8,-20.6,14.5,-19.0,50.5,20.9,101.117,35.8,0,1,0,1,2,NONE,61,370
2026-05-27T23:33:46.291,719237,1.02,-0.38,-0.33,18.7,24.0,12.6,-18.4,49.6,21.5,101.117,35.79,0,1,0,0,1,NONE,54,317
2026-05-27T23:33:46.339,719285,0.87,-0.05,-0.32,23.1,-1.9,26.1,-18.3,49.5,22.7,101.121,35.79,0,1,0,0,1,NONE,54,328
2026-05-27T23:33:46.387,719337,0.88,-0.13,-0.1,59.1,-6.2,16.7,-18.2,49.0,21.7,101.121,35.79,0,1,0,0,1,NONE,45,240
2026-05-27T23:33:46.435,719389,0.87,-0.22,-0.12,-26.2,4.4,-2.8,-17.9,48.5,24.0,101.119,35.79,0,1,0,0,1,NONE,62,368
2026-05-27T23:33:46.484,719437,1.0,0.04,-0.17,19.0,11.8,8.9,-17.6,48.7,22.9,101.118,35.79,0,1,0,0,1,NONE,62,372
2026-05-27T23:33:46.533,719485,1.01,-0.08,-0.11,20.9,18.9,6.1,-17.4,48.6,22.5,101.115,35.79,0,1,0,0,1,NONE,128,842
2026-05-27T23:33:46.591,719537,0.9,-0.11,-0.09,10.4,34.9,-0.3,-18.1,48.3,23.3,101.115,35.79,0,1,0,0,1,NONE,108,594
2026-05-27T23:33:46.641,719587,0.95,-0.12,-0.2,-13.1,19.0,-10.1,-18.9,48.2,24.3,101.121,35.79,0,1,0,0,1,NONE,106,431
2026-05-27T23:33:46.689,719635,0.86,-0.09,-0.18,-10.7,20.4,-13.0,-19.7,48.7,24.2,101.116,35.79,0,1,0,0,1,NONE,58,278
2026-05-27T23:33:46.740,719687,0.92,-0.17,-0.21,-33.4,19.8,-18.9,-20.8,49.4,22.3,101.121,35.79,0,1,0,0,1,NONE,49,267
2026-05-27T23:33:46.790,719739,0.95,0.09,-0.42,5.9,56.0,-13.5,-20.8,49.5,22.7,101.115,35.79,0,1,0,0,1,NONE,196,490
2026-05-27T23:33:46.839,719785,1.06,-0.35,-0.35,27.7,5.7,-7.3,-22.2,49.3,21.8,101.119,35.79,0,1,0,0,1,NONE,119,389
2026-05-27T23:33:46.890,719837,1.06,-0.17,-0.48,-8.2,15.3,-1.0,-23.9,49.0,22.7,101.118,35.79,0,0,0,0,0,NONE,83,404
2026-05-27T23:33:46.931,719885,0.96,-0.32,-0.5,-2.3,5.4,-6.8,-23.9,50.2,23.2,101.117,35.79,0,0,0,0,0,NONE,96,367
2026-05-27T23:33:46.990,719937,1.02,-0.25,-0.44,13.6,-3.2,-3.3,-24.6,49.4,22.9,101.119,35.79,0,0,0,0,0,NONE,69,301
2026-05-27T23:33:47.043,719989,0.84,-0.39,-0.38,-3.2,-11.8,-6.0,-23.7,49.8,22.7,101.115,35.79,0,0,0,0,0,NONE,54,296
2026-05-27T23:33:47.092,720037,0.86,-0.32,-0.32,-4.9,-6.8,-0.2,-23.7,49.5,21.8,101.118,35.79,0,1,0,0,1,NONE,41,245
2026-05-27T23:33:47.140,720085,0.89,-0.33,-0.4,-11.7,-15.9,-3.0,-23.2,49.1,22.8,101.116,35.79,0,1,0,0,1,NONE,106,520
2026-05-27T23:33:47.191,720137,0.81,-0.26,-0.28,-7.1,-8.4,2.3,-22.9,49.8,22.5,101.119,35.79,0,0,0,0,0,NONE,255,951
2026-05-27T23:33:47.237,720187,0.79,-0.35,-0.21,-10.2,-10.1,6.2,-22.8,50.0,22.1,101.117,35.79,0,0,0,0,0,NONE,313,1398
2026-05-27T23:33:47.284,720235,1.0,-0.33,-0.25,-25.8,-89.8,8.9,-21.6,50.6,21.1,101.119,35.79,0,1,0,0,1,NONE,217,1182
2026-05-27T23:33:47.332,720287,0.89,-0.21,-0.18,-4.2,-27.5,11.6,-19.7,51.1,21.3,101.119,35.79,0,1,0,0,1,NONE,64,342
2026-05-27T23:33:47.392,720339,0.84,-0.31,-0.12,-4.3,-6.0,9.5,-19.4,50.9,21.1,101.116,35.79,0,1,0,0,1,NONE,261,1166
2026-05-27T23:33:47.428,720385,0.84,-0.29,-0.01,0.0,7.0,18.1,-18.4,51.3,21.1,101.115,35.79,0,1,0,0,1,NONE,446,2133
2026-05-27T23:33:47.494,720437,0.96,-0.2,-0.17,9.8,-1.5,21.7,-18.9,51.3,21.2,101.116,35.79,0,1,0,0,1,NONE,255,1748
2026-05-27T23:33:47.540,720485,0.96,-0.24,-0.05,1.0,-28.1,18.1,-17.7,51.4,21.3,101.121,35.79,0,1,0,0,1,NONE,81,476
2026-05-27T23:33:47.593,720537,1.06,-0.34,-0.21,10.4,-4.0,17.5,-17.0,51.3,20.9,101.116,35.79,0,1,0,0,1,NONE,240,1053
2026-05-27T23:33:47.643,720589,0.91,-0.12,-0.14,-15.6,8.9,15.2,-15.9,52.1,21.3,101.122,35.79,0,1,0,0,1,NONE,165,914
2026-05-27T23:33:47.684,720637,0.95,-0.08,-0.11,21.5,18.2,21.4,-16.6,51.6,21.8,101.117,35.79,0,1,0,0,1,NONE,49,308
2026-05-27T23:33:47.732,720685,0.92,0.04,-0.32,28.9,30.7,10.8,-16.9,51.6,21.7,101.119,35.79,0,1,0,0,1,NONE,44,197
2026-05-27T23:33:47.793,720737,0.96,-0.01,-0.26,32.7,18.9,7.4,-16.8,51.2,22.5,101.12,35.79,0,1,0,0,1,NONE,33,152
2026-05-27T23:33:47.833,720787,1.01,-0.12,-0.17,28.3,17.2,3.1,-17.3,50.1,22.8,101.118,35.79,0,1,0,0,1,NONE,140,664
2026-05-27T23:33:47.886,720835,0.95,0.02,-0.29,28.3,25.3,0.5,-17.8,49.7,23.4,101.116,35.79,0,1,0,0,1,NONE,88,476
2026-05-27T23:33:47.939,720887,0.98,-0.06,-0.24,39.6,28.4,4.2,-18.1,48.9,23.4,101.117,35.79,0,1,0,0,1,NONE,56,322
2026-05-27T23:33:47.993,720939,0.96,-0.03,-0.25,15.6,22.9,-3.5,-19.2,49.0,23.6,101.117,35.79,0,1,0,0,1,NONE,84,471
2026-05-27T23:33:48.031,720985,0.87,-0.06,-0.19,24.5,23.4,-7.9,-20.3,48.4,23.3,101.122,35.79,0,1,0,0,1,NONE,105,808
2026-05-27T23:33:48.088,721037,0.93,-0.1,-0.2,-4.3,25.8,-14.9,-20.9,48.0,24.7,101.12,35.79,0,1,0,0,1,NONE,61,375
2026-05-27T23:33:48.141,721085,0.85,-0.18,-0.2,-20.7,6.2,-20.2,-21.5,48.6,24.2,101.119,35.79,0,1,0,0,1,NONE,73,561
2026-05-27T23:33:48.191,721137,0.84,-0.24,-0.28,-37.0,-6.5,-28.5,-21.9,49.0,23.1,101.116,35.79,0,1,0,0,1,NONE,265,1121
2026-05-27T23:33:48.239,721188,1.54,0.05,-0.6,13.9,-32.0,-7.6,-23.0,49.2,22.8,101.12,35.79,0,1,0,0,1,NONE,316,1080
2026-05-27T23:33:48.288,721237,0.87,-0.49,-0.28,2.9,-14.8,-13.5,-21.9,49.6,23.6,101.115,35.79,0,1,0,0,1,NONE,76,484
2026-05-27T23:33:48.335,721285,0.97,-0.09,-0.34,11.5,6.1,-0.7,-21.6,49.1,23.3,101.119,35.79,0,1,0,0,1,NONE,381,2550
2026-05-27T23:33:48.388,721337,0.94,-0.37,-0.38,11.0,14.4,-7.6,-22.3,48.6,23.9,101.117,35.79,0,1,0,0,1,NONE,519,3099
2026-05-27T23:33:48.442,721387,0.83,-0.31,-0.19,-1.3,-17.8,-2.7,-22.3,48.6,24.1,101.117,35.79,0,1,0,0,1,NONE,141,753
2026-05-27T23:33:48.479,721435,0.91,-0.27,-0.12,-6.7,-6.0,-5.1,-21.2,48.9,23.8,101.121,35.79,0,1,0,0,1,NONE,94,741
2026-05-27T23:33:48.532,721487,0.79,-0.32,-0.17,-11.0,20.8,-3.0,-21.6,48.4,23.8,101.118,35.79,0,1,0,0,1,NONE,229,1845
2026-05-27T23:33:48.593,721539,0.91,-0.31,-0.3,-5.8,7.6,0.3,-21.4,48.8,22.8,101.119,35.79,0,1,0,0,1,NONE,70,554
2026-05-27T23:33:48.624,721585,0.88,-0.27,-0.34,-8.6,16.2,-2.0,-22.3,49.3,22.8,101.117,35.79,0,1,0,0,1,NONE,51,246
2026-05-27T23:33:48.692,721637,0.9,-0.31,-0.34,-22.1,8.9,1.2,-22.5,49.5,22.7,101.12,35.79,0,1,0,0,1,NONE,50,330
2026-05-27T23:33:48.739,721685,0.89,-0.29,-0.25,-25.3,-0.1,4.9,-22.7,50.0,21.3,101.117,35.78,0,1,0,0,1,NONE,33,165
2026-05-27T23:33:48.789,721737,0.82,-0.27,-0.24,-19.3,7.8,14.6,-22.7,51.0,20.7,101.117,35.8,0,1,0,0,1,NONE,33,142
2026-05-27T23:33:48.834,721788,0.91,-0.25,-0.27,2.9,-7.4,17.7,-22.4,51.5,20.9,101.121,35.79,0,1,0,0,1,NONE,27,119
2026-05-27T23:33:48.882,721837,0.91,-0.19,-0.19,8.2,-5.4,21.1,-22.2,50.8,20.4,101.117,35.79,0,1,0,0,1,NONE,36,99
2026-05-27T23:33:48.934,721885,0.92,-0.25,-0.12,1.3,3.6,17.9,-21.2,51.3,20.9,101.116,35.79,0,1,0,0,1,NONE,60,89
2026-05-27T23:33:48.978,721937,0.92,-0.27,-0.25,23.5,4.0,18.5,-20.4,51.6,21.5,101.118,35.79,0,0,0,0,0,NONE,38,90
2026-05-27T23:33:49.036,721987,0.9,-0.16,-0.34,30.2,10.8,15.6,-20.3,50.5,21.5,101.119,35.79,0,0,0,0,0,NONE,69,257
2026-05-27T23:33:49.090,722035,0.87,-0.23,-0.3,4.8,16.0,1.6,-20.6,49.7,22.4,101.118,35.79,0,0,0,0,0,NONE,48,299
2026-05-27T23:33:49.139,722087,1.04,-0.01,-0.43,29.8,22.8,11.0,-20.7,50.3,23.1,101.118,35.79,0,0,0,0,0,NONE,57,214
2026-05-27T23:33:49.186,722139,0.88,-0.08,-0.2,59.1,-3.7,7.7,-21.3,49.9,23.2,101.121,35.78,0,1,0,0,1,NONE,66,374
2026-05-27T23:33:49.239,722185,0.93,-0.17,-0.17,22.3,17.7,-0.2,-21.0,48.9,24.9,101.116,35.79,0,1,0,0,1,NONE,121,561
2026-05-27T23:33:49.283,722239,1.06,0.03,-0.41,13.2,20.9,-0.4,-21.4,48.4,23.8,101.114,35.79,0,1,0,0,1,NONE,62,351
2026-05-27T23:33:49.330,722285,0.94,-0.08,-0.23,24.3,-4.2,-2.7,-21.6,48.1,24.2,101.116,35.78,0,1,0,0,1,NONE,38,247
2026-05-27T23:33:49.391,722337,0.91,-0.08,-0.27,15.4,10.9,-2.4,-22.0,47.8,24.1,101.114,35.79,0,0,0,0,0,NONE,75,402
2026-05-27T23:33:49.443,722388,0.97,-0.08,-0.26,4.7,6.1,-5.9,-22.4,48.3,24.7,101.115,35.79,0,0,0,0,0,NONE,67,368
2026-05-27T23:33:49.491,722436,0.9,-0.11,-0.22,-7.9,4.2,-9.8,-22.1,47.5,24.5,101.118,35.79,0,1,0,0,1,NONE,83,462
2026-05-27T23:33:49.540,722485,0.82,-0.13,-0.17,-11.0,6.9,-11.7,-22.4,48.0,24.9,101.118,35.78,0,1,0,0,1,NONE,69,461
2026-05-27T23:33:49.589,722537,0.96,-0.06,-0.48,-20.0,28.0,-12.8,-23.3,48.3,23.9,101.12,35.78,0,0,0,0,0,NONE,51,331
2026-05-27T23:33:49.638,722587,1.08,-0.35,-0.57,-24.2,2.5,-12.1,-24.0,48.7,23.8,101.119,35.79,0,0,0,0,0,NONE,141,364
2026-05-27T23:33:49.686,722635,0.91,-0.08,-0.45,-12.9,10.1,2.2,-24.3,48.9,22.3,101.116,35.78,0,0,0,0,0,NONE,55,345
2026-05-27T23:33:49.734,722687,1.01,-0.35,-0.47,-4.3,-6.7,-8.3,-24.7,49.4,23.6,101.121,35.78,0,0,0,0,0,NONE,49,227
2026-05-27T23:33:49.785,722739,0.9,-0.26,-0.37,-9.1,-8.7,-8.8,-24.1,48.8,22.2,101.122,35.79,0,0,0,0,0,NONE,65,341
2026-05-27T23:33:49.830,722785,0.87,-0.26,-0.38,-3.7,-14.6,-8.7,-24.6,49.1,22.7,101.119,35.78,0,0,0,0,0,NONE,38,234
2026-05-27T23:33:49.891,722837,0.82,-0.3,-0.32,-2.4,-13.5,-3.5,-24.6,49.1,22.1,101.116,35.79,0,0,0,0,0,NONE,29,163
2026-05-27T23:33:49.943,722885,0.86,-0.32,-0.33,-10.5,-9.8,-2.7,-24.7,49.5,22.5,101.114,35.77,0,0,0,0,0,NONE,31,149
2026-05-27T23:33:49.991,722937,0.87,-0.28,-0.29,-11.8,-4.6,1.2,-24.2,50.2,22.7,101.119,35.79,0,0,0,0,0,NONE,45,199
2026-05-27T23:33:50.035,722989,0.85,-0.33,-0.26,-11.3,-5.1,3.5,-23.7,50.5,22.9,101.118,35.78,0,0,0,0,0,NONE,56,298
2026-05-27T23:33:50.084,723037,0.88,-0.33,-0.24,-11.8,-5.3,10.9,-23.1,50.9,22.3,101.119,35.79,0,0,0,0,0,NONE,40,201
2026-05-27T23:33:50.132,723085,0.9,-0.27,-0.19,-6.7,-4.2,13.0,-22.8,51.3,21.1,101.115,35.79,0,0,0,0,0,NONE,39,195
2026-05-27T23:33:50.184,723138,0.94,-0.24,-0.21,0.9,-4.2,14.3,-22.4,51.2,21.0,101.118,35.78,0,0,0,0,0,NONE,32,157
2026-05-27T23:33:50.241,723187,0.89,-0.21,-0.21,6.8,-6.8,13.4,-22.0,51.5,21.1,101.119,35.78,0,0,0,0,0,NONE,40,273
2026-05-27T23:33:50.280,723236,0.91,-0.27,-0.17,18.5,-4.8,16.8,-21.5,51.6,20.9,101.118,35.78,0,0,0,0,0,NONE,33,182
2026-05-27T23:33:50.339,723287,0.98,-0.23,-0.21,22.3,1.5,19.5,-21.3,51.0,21.8,101.113,35.78,0,0,0,0,0,NONE,35,160
2026-05-27T23:33:50.387,723339,0.88,-0.22,-0.39,30.9,-7.5,7.7,-20.5,51.5,22.0,101.121,35.78,0,0,0,0,0,NONE,45,231
2026-05-27T23:33:50.439,723385,1.07,-0.13,-0.14,31.3,-8.1,7.6,-20.4,50.2,23.4,101.118,35.77,0,0,0,0,0,NONE,43,253
2026-05-27T23:33:50.484,723437,0.89,-0.16,-0.3,42.1,-5.1,6.1,-19.8,50.4,24.0,101.119,35.79,0,1,0,0,1,NONE,46,169
2026-05-27T23:33:50.538,723486,0.93,-0.05,-0.04,31.2,0.2,0.5,-19.8,50.4,24.0,101.116,35.79,0,1,0,0,1,NONE,27,128
2026-05-27T23:33:50.589,723537,1.02,-0.13,-0.22,1.8,18.8,2.8,-19.8,48.9,25.4,101.119,35.79,0,0,0,0,0,NONE,27,156
2026-05-27T23:33:50.643,723589,0.92,0.01,-0.18,22.9,-0.9,5.2,-19.6,48.3,24.4,101.119,35.79,0,0,0,0,0,NONE,29,178
2026-05-27T23:33:50.691,723637,0.92,-0.11,-0.11,27.5,15.4,0.2,-20.1,47.3,25.6,101.121,35.78,0,0,0,0,0,NONE,32,158
2026-05-27T23:33:50.740,723685,0.82,-0.13,-0.19,2.3,18.1,-2.3,-20.4,47.0,26.5,101.115,35.78,0,0,0,0,0,NONE,27,127
2026-05-27T23:33:50.791,723737,0.94,-0.11,-0.11,9.2,11.4,-8.4,-21.3,47.6,25.0,101.121,35.78,0,1,0,0,1,NONE,31,106
2026-05-27T23:33:50.839,723787,0.88,-0.13,-0.09,-2.4,11.2,-12.8,-21.1,47.4,26.2,101.119,35.78,0,1,0,0,1,NONE,30,142
2026-05-27T23:33:50.891,723835,0.62,-0.17,-0.12,-0.2,7.9,-18.0,-21.7,46.9,25.9,101.117,35.78,0,1,0,0,1,NONE,34,130
2026-05-27T23:33:50.942,723887,0.39,-0.3,-0.26,-42.5,35.7,-1.7,-22.6,47.9,24.7,101.117,35.79,0,1,0,0,1,NONE,56,238
2026-05-27T23:33:50.992,723939,0.11,-0.33,-0.35,-72.9,53.5,-16.0,-24.4,49.6,23.3,101.122,35.79,0,0,0,0,0,NONE,50,287
2026-05-27T23:33:51.027,723985,0.33,0.18,-0.18,-127.4,64.6,-4.5,-26.3,52.1,20.0,101.123,35.79,0,0,0,0,0,NONE,50,337
2026-05-27T23:33:51.092,724037,0.2,-0.04,-0.35,-98.4,78.2,-21.9,-28.0,54.5,17.5,101.121,35.79,0,0,0,0,0,NONE,337,1578
2026-05-27T23:33:51.140,724085,1.42,-0.24,-2.03,68.7,117.2,-18.6,-31.6,54.5,15.1,101.121,35.78,0,0,0,0,0,NONE,253,593
2026-05-27T23:33:51.188,724138,1.31,-1.42,-1.65,126.9,94.5,2.8,-34.5,52.0,16.3,101.119,35.79,0,0,0,0,0,NONE,283,645
2026-05-27T23:33:51.240,724188,1.37,-0.14,-1.26,73.2,81.5,-6.4,-36.2,50.5,17.6,101.122,35.78,0,0,0,0,0,NONE,81,363
2026-05-27T23:33:51.290,724237,1.0,-0.6,-0.95,23.0,45.3,-31.6,-37.4,49.3,18.5,101.121,35.78,0,0,0,0,0,NONE,125,378
2026-05-27T23:33:51.335,724285,0.99,-0.72,-0.77,-8.9,24.4,-14.6,-38.5,48.6,18.5,101.121,35.78,0,0,0,0,0,NONE,43,250
2026-05-27T23:33:51.381,724337,0.88,-0.22,-0.63,-39.7,-11.2,0.9,-38.5,49.1,16.6,101.118,35.78,0,0,0,0,0,NONE,76,419
2026-05-27T23:33:51.432,724387,0.53,-0.32,-0.49,-30.5,-43.6,15.2,-37.7,50.1,16.1,101.123,35.79,0,0,0,0,0,NONE,28,138
2026-05-27T23:33:51.491,724435,0.38,-0.07,-0.6,-9.3,-39.7,23.0,-36.9,50.7,16.6,101.122,35.78,0,0,0,0,0,NONE,92,126
2026-05-27T23:33:51.541,724487,0.62,-0.28,-0.69,7.8,-33.5,15.4,-35.5,51.2,17.4,101.122,35.78,0,0,0,0,0,NONE,29,171
2026-05-27T23:33:51.588,724539,0.68,-0.45,-0.6,-3.1,-21.7,8.4,-34.5,50.5,18.5,101.119,35.78,0,0,0,0,0,NONE,43,88
2026-05-27T23:33:51.639,724585,0.76,-0.65,-0.58,-29.8,-14.2,30.9,-34.0,51.3,18.4,101.12,35.78,0,0,0,0,0,NONE,74,194
2026-05-27T23:33:51.687,724637,0.76,-0.46,-0.54,-34.5,-8.3,24.9,-32.9,52.5,16.6,101.12,35.79,0,0,0,0,0,NONE,42,203
2026-05-27T23:33:51.731,724685,0.69,-0.31,-0.39,-40.8,4.3,14.2,-32.7,53.2,15.9,101.12,35.78,0,0,0,0,0,NONE,35,159
2026-05-27T23:33:51.788,724737,0.8,-0.29,-0.41,-24.5,-3.8,17.0,-31.9,54.3,16.1,101.12,35.78,0,0,0,0,0,NONE,40,249
2026-05-27T23:33:51.843,724789,0.88,-0.25,-0.44,-4.0,-15.7,10.4,-31.7,54.6,14.8,101.122,35.78,0,0,0,0,0,NONE,33,223
2026-05-27T23:33:51.891,724837,0.72,-0.36,-0.3,17.5,-30.2,0.0,-31.0,54.8,15.3,101.118,35.78,0,0,0,0,0,NONE,43,219
2026-05-27T23:33:51.939,724885,0.88,-0.37,-0.39,30.7,-19.1,-3.1,-30.7,54.1,15.9,101.12,35.77,0,0,0,0,0,NONE,49,244
2026-05-27T23:33:51.988,724937,0.79,-0.25,-0.34,52.5,-31.7,-0.2,-29.6,53.8,17.4,101.121,35.77,0,0,0,0,0,NONE,54,330
2026-05-27T23:33:52.040,724987,0.87,-0.18,-0.4,81.6,-34.5,0.7,-29.4,52.3,19.2,101.119,35.78,0,0,0,0,0,NONE,27,140
2026-05-27T23:33:52.088,725035,0.96,-0.25,-0.3,86.3,-32.1,7.4,-28.3,51.3,22.0,101.118,35.78,0,0,0,0,0,NONE,32,181
2026-05-27T23:33:52.131,725087,0.91,-0.19,-0.43,79.6,-34.2,2.9,-27.3,49.6,23.2,101.115,35.77,0,0,0,0,0,NONE,20,108
